File: data/DE_49_2_30.mpt
EC-Lab ASCII FILE
Nb header lines : 75

Potentio Electrochemical Impedance Spectroscopy

Run on channel : 2 (SN 20919)
User :
CE vs. WE compliance from -10 V to 10 V
Electrode connection : standard
Ewe ctrl range : min = -10.00 V, max = 10.00 V
Safety Limits :
	Do not start on E overload
Acquisition started on : 01/22/2020 09:35:57
Technique started on : 01/22/2020 09:35:58
Saved on :
	File : DE_49_2_30.mpr
	Directory : P:\Chemistry\Data\VMP3\Kyler\DOE\DE_49\30C\
	Host : 10.0.4.99
Device : VMP3 (SN 0183)
Address : USB
EC-Lab for windows v11.33 (software)
Internet server v11.32 (firmware)
Command interpretor v11.33 (firmware)
Electrode material :
Initial state :
Electrolyte :
Comments :
Electrode surface area : 0.001 cm²
Characteristic mass : 0.001 g
Equivalent Weight : 0.000 g/eq.
Density : 0.000 g/cm3
Record Analogic IN 1
Cycle Definition : Charge/Discharge alternance
External device configuration :
   device type : Thermostat
   device name : Other
   Analog OUT :
      mode : E/V
      unit : T/°C
      max : 400.000 at 5.000 V
      min : -100.000 at 0.000 V
      current : 0.000
   Analog IN 1 :
      unit : T/°C
      max : 400.000 at 5.000 V
      min : -100.000 at 0.000 V
Mode                Single sine
E (V)               0.0000
vs.                 Eoc
tE (h:m:s)          0:00:0.0000
record              0
dI                  1.000
unit dI             mA
dt (s)              0.000
fi                  1.000
unit fi             MHz
ff                  1.000
unit ff             Hz
Nd                  20
Points              per decade
spacing             Logarithmic
Va (mV)             128.0
pw                  0.50
Na                  3
corr                0
E range min (V)     -10.000
E range max (V)     10.000
I Range             Auto
Bandwidth           5
nc cycles           0
goto Ns'            0
nr cycles           0
inc. cycle          1

freq/Hz	Re(Z)/Ohm	-Im(Z)/Ohm	|Z|/Ohm	Phase(Z)/deg	time/s	<Ewe>/V	<I>/mA	Cs/µF	Cp/µF	cycle number	I Range	|Ewe|/V	|I|/A	(Q-Qo)/mA.h	Analog OUT/V	Analog IN 1/V	Re(Y)/Ohm-1	Im(Y)/Ohm-1	|Y|/Ohm-1	Phase(Y)/deg	dq/mA.h
1.00002e+06	-1.30761	-2.38723	2.7219	118.712	1.80149	-0.00355042	-0.971648	-0.066668	-0.0512818	1	9	0.000160098	5.88184e-05	-0.000276889	0.0000000E+000	-100.118	-0.176496	-0.322219	0.367391	-118.712	-0.000276889
891247	-1.30636	-3.17503	3.43328	112.365	2.3965	-0.00312161	-0.829005	-0.0562437	-0.0481008	1	9	0.000287084	8.36179e-05	-0.00040961	0.0000000E+000	-100.086	-0.110826	-0.269358	0.291267	-112.365	-0.000132721
794333	-0.867988	-4.04626	4.13831	102.107	2.99249	-0.00278908	-0.716062	-0.0495181	-0.0473397	1	9	0.000476304	0.000115096	-0.000524974	0.0000000E+000	-100.078	-0.0506837	-0.23627	0.241645	-102.107	-0.000115364
707950	0.0779337	-4.49075	4.49142	89.0058	3.58749	-0.00247888	-0.615432	-0.0500609	-0.0500459	1	9	0.000748093	0.00016656	-0.000624346	0.0000000E+000	-100.102	0.00386328	-0.222613	0.222646	-89.0058	-9.93714e-05
630957	0.922073	-4.59762	4.68917	78.6595	4.18348	-0.00224056	-0.533402	-0.054864	-0.0527426	1	9	0.00109404	0.000233312	-0.000709488	0.0000000E+000	-100.086	0.0419347	-0.209094	0.213257	-78.6595	-8.51424e-05
562342	1.57923	-4.25073	4.53461	69.619	4.77949	-0.00204222	-0.467845	-0.0665819	-0.0585064	1	9	0.00151965	0.000335124	-0.000785105	0.0000000E+000	-100.11	0.0768008	-0.206721	0.220526	-69.619	-7.56167e-05
501206	2.06244	-3.88807	4.40122	62.0562	5.37648	-0.00187837	-0.421485	-0.0816714	-0.0637371	1	9	0.00203573	0.000462538	-0.000851348	0.0000000E+000	-100.054	0.106472	-0.200719	0.22721	-62.0562	-6.62438e-05
446686	2.35223	-3.50951	4.22488	56.1682	5.97248	-0.00175654	-0.369678	-0.101525	-0.0700543	1	9	0.00265153	0.000627598	-0.000910332	0.0000000E+000	-100.118	0.13178	-0.196615	0.236693	-56.1682	-5.89835e-05
398103	2.59651	-3.14546	4.0787	50.4611	6.5685	-0.00170542	-0.353708	-0.127098	-0.0755901	1	9	0.00339542	0.000832477	-0.000964718	0.0000000E+000	-100.086	0.15608	-0.189078	0.245176	-50.4611	-5.43861e-05
354810	2.74813	-2.81178	3.93171	45.6559	7.16348	-0.00168337	-0.347179	-0.15953	-0.0815911	1	9	0.00429158	0.00109153	-0.00102103	0.0000000E+000	-100.134	0.177777	-0.181894	0.254342	-45.6559	-5.63085e-05
316230	2.84599	-2.48831	3.78038	41.1639	7.75848	-0.00169768	-0.353783	-0.202262	-0.0876293	1	9	0.0053759	0.00142205	-0.00107799	0.0000000E+000	-100.11	0.199141	-0.174113	0.264523	-41.1639	-5.69662e-05
281835	2.9208	-2.2149	3.66564	37.1737	8.35348	-0.00171372	-0.362607	-0.25496	-0.0930855	1	9	0.00672022	0.0018333	-0.00113374	0.0000000E+000	-100.046	0.217372	-0.164837	0.272804	-37.1737	-5.57428e-05
251188	2.97288	-1.96131	3.56157	33.4141	8.94948	-0.00171912	-0.365424	-0.323054	-0.0979682	1	9	0.00843917	0.00236951	-0.00118783	0.0000000E+000	-100.15	0.234366	-0.154619	0.280775	-33.4141	-5.40918e-05
223872	3.00818	-1.74649	3.47842	30.1386	9.54448	-0.00172768	-0.360779	-0.407057	-0.102618	1	9	0.0106828	0.00307118	-0.00124398	0.0000000E+000	-100.102	0.248623	-0.144345	0.287487	-30.1386	-5.61564e-05
199544	3.03189	-1.55944	3.40943	27.2189	10.1415	-0.00173077	-0.362495	-0.511462	-0.107001	1	9	0.0137075	0.00402048	-0.00129606	0.0000000E+000	-100.086	0.260825	-0.134155	0.293304	-27.2189	-5.20724e-05
177832	3.05185	-1.39546	3.35575	24.5723	10.7365	-0.00172248	-0.363894	-0.641348	-0.110904	1	9	0.0178387	0.00531584	-0.00135523	0.0000000E+000	-100.086	0.271008	-0.123919	0.297996	-24.5723	-5.91699e-05
158486	3.06246	-1.25251	3.30869	22.244	11.3325	-0.00171597	-0.360163	-0.801767	-0.114894	1	9	0.0234979	0.00710188	-0.00140181	0.0000000E+000	-100.126	0.279742	-0.114411	0.302235	-22.244	-4.65845e-05
141256	3.06659	-1.12494	3.26641	20.1449	11.9285	-0.00171243	-0.364883	-1.00158	-0.118795	1	9	0.0313357	0.00959331	-0.00145195	0.0000000E+000	-100.054	0.287418	-0.105435	0.306146	-20.1449	-5.01391e-05
125909	3.06884	-1.01221	3.23146	18.2543	12.5255	-0.00170316	-0.362849	-1.2488	-0.122527	1	9	0.0432343	0.0133792	-0.00152547	0.0000000E+000	-100.118	0.293884	-0.0969328	0.309457	-18.2543	-7.35204e-05
112205	3.06929	-0.917114	3.20338	16.6363	13.1215	-0.0015717	-0.326153	-1.54662	-0.126769	1	9	0.0818909	0.0255639	-0.00156925	0.0000000E+000	-100.046	0.299103	-0.0893729	0.31217	-16.6363	-4.37847e-05
100004	3.07073	-0.822308	3.17893	14.9914	13.8525	-0.00153631	-0.287497	-1.93539	-0.129502	1	9	0.140574	0.0442205	-0.00165531	0.0000000E+000	-100.11	0.303865	-0.0813718	0.314572	-14.9914	-8.60569e-05
89129.3	3.0644	-0.735885	3.15151	13.5033	14.5845	-0.00145065	-0.264886	-2.42655	-0.132303	1	9	0.138902	0.0440746	-0.0018236	0.0000000E+000	-100.078	0.308536	-0.074092	0.317308	-13.5033	-0.000168284
79433.3	3.05796	-0.658771	3.12811	12.1573	15.1805	-0.00140414	-0.251771	-3.04147	-0.134892	1	9	0.120834	0.0386284	-0.00188571	0.0000000E+000	-100.142	0.312512	-0.067324	0.319682	-12.1573	-6.21182e-05
70795	3.0533	-0.589277	3.10965	10.9236	15.7765	-0.00140691	-0.239272	-3.81503	-0.136998	1	9	0.126878	0.0408013	-0.00191994	0.0000000E+000	-100.078	0.315753	-0.0609392	0.32158	-10.9236	-3.42314e-05
63093.8	3.04923	-0.527016	3.09444	9.80589	16.3725	-0.00138245	-0.221493	-4.78641	-0.138833	1	9	0.128854	0.0416407	-0.00189592	0.0000000E+000	-100.086	0.318439	-0.0550378	0.323161	-9.80589	2.4024e-05
56237	3.04575	-0.470993	3.08195	8.79055	16.9685	-0.00135706	-0.219739	-6.00874	-0.140333	1	9	0.130011	0.0421845	-0.00184212	0.0000000E+000	-100.134	0.320658	-0.0495864	0.32447	-8.79055	5.37997e-05
50122.5	3.04308	-0.420951	3.07206	7.87577	17.5635	-0.001328	-0.205038	-7.5432	-0.141631	1	9	0.130432	0.0424576	-0.00186975	0.0000000E+000	-100.07	0.322444	-0.0446038	0.325514	-7.87577	-2.76329e-05
44666.7	3.0407	-0.376112	3.06388	7.05123	18.1585	-0.00133434	-0.216456	-9.47369	-0.142761	1	9	0.130384	0.0425551	-0.00184158	0.0000000E+000	-100.094	0.323915	-0.0400658	0.326384	-7.05123	2.81754e-05
39814.1	3.03877	-0.335882	3.05728	6.30743	18.6185	-0.00148736	-0.228041	-11.9014	-0.143649	1	9	0.138625	0.0453428	-0.00183785	0.0000000E+000	-100.118	0.325109	-0.035935	0.327089	-6.30743	3.72549e-06
35481	3.03557	-0.299638	3.05033	5.63734	19.2135	-0.00130154	-0.209366	-14.9702	-0.144454	1	9	0.131472	0.0431009	-0.00199035	0.0000000E+000	-100.07	0.326248	-0.0322036	0.327834	-5.63734	-0.000152496
31621.1	3.03431	-0.267451	3.04607	5.03716	19.6735	-0.00134013	-0.210691	-18.8191	-0.14508	1	9	0.136042	0.0446616	-0.00201979	0.0000000E+000	-100.102	0.327024	-0.0288246	0.328292	-5.03716	-2.94445e-05
28188.1	3.03338	-0.238597	3.04275	4.49746	20.1335	-0.00133288	-0.207594	-23.664	-0.145508	1	9	0.139568	0.0458691	-0.00203279	0.0000000E+000	-100.054	0.327638	-0.025771	0.32865	-4.49746	-1.29925e-05
25116.9	3.03154	-0.212901	3.039	4.01722	20.7295	-0.00133147	-0.212053	-29.7629	-0.146073	1	9	0.130663	0.0429953	-0.00211084	0.0000000E+000	-100.086	0.328247	-0.0230524	0.329055	-4.01722	-7.80589e-05
22389	3.03105	-0.189785	3.03699	3.58282	21.1885	-0.00131111	-0.207407	-37.4561	-0.146272	1	9	0.132252	0.043547	-0.00212054	0.0000000E+000	-100.094	0.32863	-0.0205767	0.329274	-3.58282	-9.69016e-06
19948.8	3.03036	-0.168956	3.03506	3.19119	21.6485	-0.00131817	-0.204721	-47.2206	-0.146333	1	9	0.13335	0.0439365	-0.00211448	0.0000000E+000	-100.118	0.328972	-0.0183416	0.329483	-3.19119	6.05482e-06
17786.9	3.02981	-0.150605	3.03355	2.8457	22.1075	-0.00131066	-0.207482	-59.4129	-0.146439	1	9	0.134101	0.0442061	-0.0021711	0.0000000E+000	-100.07	0.329241	-0.0163658	0.329647	-2.8457	-5.66233e-05
15847.7	3.02952	-0.134289	3.0325	2.53808	22.5675	-0.0013208	-0.206139	-74.7848	-0.146654	1	9	0.134618	0.0443918	-0.00223271	0.0000000E+000	-100.11	0.329438	-0.0146029	0.329761	-2.53808	-6.16086e-05
14121.9	3.02896	-0.11943	3.03131	2.25797	23.0265	-0.00132817	-0.207333	-94.3655	-0.146481	1	9	0.13493	0.0445121	-0.00223163	0.0000000E+000	-100.118	0.329634	-0.0129973	0.32989	-2.25797	1.07846e-06
12590.9	3.02881	-0.106368	3.03068	2.01132	23.4855	-0.00130244	-0.199945	-118.837	-0.146383	1	9	0.13514	0.0445906	-0.002299	0.0000000E+000	-100.07	0.329756	-0.0115806	0.329959	-2.01132	-6.73709e-05
11217.7	3.02869	-0.0948037	3.03018	1.79288	23.9445	-0.00130986	-0.204329	-149.655	-0.146489	1	9	0.135268	0.0446402	-0.00236728	0.0000000E+000	-100.07	0.329852	-0.010325	0.330014	-1.79288	-6.82705e-05
10002.2	3.02868	-0.0850392	3.02988	1.60832	24.4035	-0.0012945	-0.19349	-187.113	-0.147398	1	9	0.13537	0.0446784	-0.00243383	0.0000000E+000	-100.086	0.329916	-0.00926337	0.330046	-1.60832	-6.65556e-05
8914.93	3.02843	-0.0750936	3.02937	1.42042	24.8859	-0.00127563	-0.184293	-237.738	-0.146084	1	9	0.135377	0.0446882	-0.00243975	0.0000000E+000	-100.086	0.330001	-0.00818275	0.330102	-1.42042	-5.91842e-06
7944	3.02835	-0.0670754	3.02909	1.26885	25.412	-0.00126269	-0.181569	-298.688	-0.14646	1	9	0.135405	0.0447016	-0.00249968	0.0000000E+000	-100.102	0.330051	-0.00731035	0.330132	-1.26885	-5.99317e-05
7082.23	3.02794	-0.0597137	3.02853	1.12978	25.9889	-0.00125943	-0.185207	-376.336	-0.146305	1	9	0.135409	0.0447112	-0.0025052	0.0000000E+000	-100.078	0.330129	-0.00651043	0.330193	-1.12978	-5.52227e-06
6307.73	3.02783	-0.0529738	3.02829	1.00232	26.6235	-0.00124431	-0.191307	-476.305	-0.145751	1	9	0.135412	0.0447157	-0.00255112	0.0000000E+000	-100.07	0.330169	-0.00577651	0.330219	-1.00232	-4.59147e-05
5621.06	3.02801	-0.0473087	3.02838	0.895099	27.3243	-0.0012406	-0.189031	-598.496	-0.146057	1	9	0.135407	0.0447125	-0.00262158	0.0000000E+000	-100.102	0.330169	-0.00515847	0.33021	-0.895099	-7.04622e-05
5011.6	3.02816	-0.0421804	3.02845	0.798044	28.0847	-0.00124179	-0.189236	-752.892	-0.146054	1	9	0.135409	0.0447123	-0.00269015	0.0000000E+000	-100.062	0.33017	-0.00459906	0.330202	-0.798044	-6.85733e-05
4466.43	3.02802	-0.037744	3.02826	0.71415	28.8437	-0.00123253	-0.17974	-944.086	-0.146664	1	9	0.135405	0.0447139	-0.00268879	0.0000000E+000	-100.094	0.330197	-0.00411588	0.330223	-0.71415	1.36768e-06
3981.27	3.0282	-0.0334993	3.02838	0.633806	29.6037	-0.00123262	-0.181886	-1193.33	-0.14602	1	9	0.135402	0.0447109	-0.00274787	0.0000000E+000	-100.094	0.330189	-0.0036527	0.330209	-0.633806	-5.90807e-05
3546.6	3.02831	-0.0297288	3.02845	0.562454	30.363	-0.00124187	-0.183807	-1509.49	-0.145461	1	9	0.135398	0.0447087	-0.00279474	0.0000000E+000	-100.062	0.330186	-0.00324143	0.330202	-0.562454	-4.68691e-05
3161.01	3.02792	-0.026298	3.02803	0.497611	31.1227	-0.00123937	-0.19015	-1914.57	-0.14441	1	9	0.135394	0.0447135	-0.00283534	0.0000000E+000	-100.086	0.330235	-0.00286815	0.330248	-0.497611	-4.06061e-05
2817.3	3.02822	-0.0236945	3.02832	0.448305	31.883	-0.0012398	-0.187688	-2384.19	-0.14596	1	9	0.135393	0.0447089	-0.00283628	0.0000000E+000	-100.102	0.330207	-0.00258372	0.330217	-0.448305	-9.39792e-07
2510.8	3.02841	-0.0212152	3.02849	0.401372	32.6427	-0.00124015	-0.185598	-2987.86	-0.146623	1	9	0.135393	0.0447065	-0.00286188	0.0000000E+000	-100.078	0.33019	-0.0023131	0.330198	-0.401372	-2.55996e-05
2237.85	3.02795	-0.0188251	3.02801	0.35621	33.403	-0.00123846	-0.184498	-3777.91	-0.14602	1	9	0.135389	0.0447123	-0.0029411	0.0000000E+000	-100.03	0.330244	-0.00205317	0.33025	-0.35621	-7.92182e-05