File: data/DE_40_4_60.mpt
EC-Lab ASCII FILE
Nb header lines : 75

Potentio Electrochemical Impedance Spectroscopy

Run on channel : 4 (SN 4192)
User :
CE vs. WE compliance from -10 V to 10 V
Electrode connection : standard
Ewe ctrl range : min = -10.00 V, max = 10.00 V
Safety Limits :
	Do not start on E overload
Acquisition started on : 01/24/2020 09:45:03
Technique started on : 01/24/2020 09:45:04
Saved on :
	File : DE_40_4_60.mpr
	Directory : P:\Chemistry\Data\VMP3\Kyler\DOE\DE_40\2ND 60C\
	Host : 10.0.4.99
Device : VMP3 (SN 0183)
Address : USB
EC-Lab for windows v11.33 (software)
Internet server v11.32 (firmware)
Command interpretor v11.33 (firmware)
Electrode material :
Initial state :
Electrolyte :
Comments :
Electrode surface area : 0.001 cm²
Characteristic mass : 0.001 g
Equivalent Weight : 0.000 g/eq.
Density : 0.000 g/cm3
Record Analogic IN 1
Cycle Definition : Charge/Discharge alternance
External device configuration :
   device type : Thermostat
   device name : Other
   Analog OUT :
      mode : E/V
      unit : T/°C
      max : 400.000 at 5.000 V
      min : -100.000 at 0.000 V
      current : 0.000
   Analog IN 1 :
      unit : T/°C
      max : 400.000 at 5.000 V
      min : -100.000 at 0.000 V
Mode                Single sine
E (V)               0.0000
vs.                 Eoc
tE (h:m:s)          0:00:0.0000
record              0
dI                  1.000
unit dI             mA
dt (s)              0.000
fi                  1.000
unit fi             MHz
ff                  1.000
unit ff             Hz
Nd                  20
Points              per decade
spacing             Logarithmic
Va (mV)             128.0
pw                  0.50
Na                  3
corr                0
E range min (V)     -10.000
E range max (V)     10.000
I Range             Auto
Bandwidth           5
nc cycles           0
goto Ns'            0
nr cycles           0
inc. cycle          1

freq/Hz	Re(Z)/Ohm	-Im(Z)/Ohm	|Z|/Ohm	Phase(Z)/deg	time/s	<Ewe>/V	<I>/mA	Cs/µF	Cp/µF	cycle number	I Range	|Ewe|/V	|I|/A	(Q-Qo)/mA.h	Analog OUT/V	Analog IN 1/V	Re(Y)/Ohm-1	Im(Y)/Ohm-1	|Y|/Ohm-1	Phase(Y)/deg	dq/mA.h
1.00002e+06	71.1921	38.3897	80.8831	-28.3354	1.64549	-0.0538534	0.00194014	0.00414569	0.000933923	1	11	0.000612304	7.57023e-06	4.45067e-07	0.0000000E+000	-100.032	0.0108822	0.00586812	0.0123635	28.3354	4.45067e-07
891247	76.8721	37.865	85.6918	-26.2235	2.24148	-0.053601	0.00221745	0.00471611	0.000920836	1	11	0.000757679	8.84191e-06	7.65437e-07	0.0000000E+000	-100.097	0.0104686	0.00515656	0.0116697	26.2235	3.20371e-07
794333	83.5669	38.5224	92.0185	-24.7486	2.83649	-0.0534302	0.00259955	0.00520121	0.00091155	1	11	0.000633529	6.8848e-06	1.1143e-06	0.0000000E+000	-100.121	0.00986925	0.00454949	0.0108674	24.7486	3.48866e-07
707950	1.00918	2.14143	2.36731	-64.7671	3.6316	-0.0532447	0.283763	0.104982	0.0859035	1	9	3.0498e-05	1.2883e-05	2.82825e-05	0.0000000E+000	-100.024	0.180078	0.382114	0.42242	64.7671	2.71682e-05
630957	92.521	35.6034	99.135	-21.0474	4.80748	-0.0531847	0.0030708	0.00708483	0.000913814	1	11	0.00137627	1.38828e-05	5.741e-05	0.0000000E+000	-100.105	0.00941427	0.00362274	0.0100873	21.0474	2.91275e-05
562342	96.4595	35.057	102.633	-19.9731	5.40349	-0.0530842	0.00314543	0.00807317	0.000941943	1	11	0.00362986	3.53675e-05	5.77029e-05	0.0000000E+000	-100.113	0.00915746	0.00332817	0.0097435	19.9731	2.92859e-07
501206	101.541	34.451	107.226	-18.7411	6.00049	-0.0530351	0.00337398	0.00921727	0.00095149	1	11	0.00687956	6.41594e-05	5.82545e-05	0.0000000E+000	-100.081	0.00883162	0.0029964	0.00932609	18.7411	5.51671e-07
446686	105.356	33.2879	110.489	-17.5343	6.59547	-0.0529818	0.00351134	0.0107037	0.000971546	1	11	0.0112123	0.000101478	5.86273e-05	0.0000000E+000	-100.048	0.00863013	0.00272675	0.00905065	17.5343	3.72734e-07
398103	109.214	31.8526	113.764	-16.2596	7.19049	-0.0529925	0.00352455	0.012551	0.000983924	1	11	0.0166548	0.000146398	5.87312e-05	0.0000000E+000	-100.129	0.00843856	0.00246114	0.00879014	16.2596	1.03895e-07
354810	112.008	30.1429	115.993	-15.0622	7.78647	-0.0529506	0.00349701	0.0148813	0.00100495	1	11	0.0231333	0.000199436	5.95991e-05	0.0000000E+000	-100.153	0.008325	0.00224037	0.00862119	15.0622	8.67925e-07
316230	114.41	28.3583	117.872	-13.9211	8.38148	-0.0529459	0.00346109	0.0177475	0.00102725	1	11	0.0306051	0.000259646	5.98901e-05	0.0000000E+000	-100.113	0.00823459	0.00204107	0.00848377	13.9211	2.91051e-07
281835	116.46	26.4418	119.424	-12.792	8.97648	-0.0529699	0.00341158	0.0213567	0.00104698	1	11	0.0392562	0.000328714	6.00033e-05	0.0000000E+000	-100.097	0.00816572	0.001854	0.00837355	12.792	1.1313e-07
251188	118.526	24.6742	121.067	-11.7596	9.57249	-0.0529402	0.00355173	0.025679	0.00106663	1	11	0.0490467	0.00040512	6.01742e-05	0.0000000E+000	-100.129	0.00808651	0.00168341	0.00825988	11.7596	1.70975e-07
223872	120.207	22.912	122.371	-10.7914	10.1685	-0.0529591	0.00325953	0.0310283	0.00108774	1	11	0.0599729	0.00049009	6.06383e-05	0.0000000E+000	-100.048	0.00802735	0.00153005	0.00817186	10.7914	4.64069e-07
199544	121.534	21.2378	123.376	-9.91217	10.7645	-0.0529112	0.00362376	0.0375555	0.00111283	1	11	0.0718	0.00058196	6.01399e-05	0.0000000E+000	-100.105	0.0079843	0.00139523	0.00810529	9.91217	-4.98363e-07
177832	122.539	19.6898	124.111	-9.12836	11.3605	-0.0529136	0.00331575	0.0454537	0.00114402	1	11	0.0845542	0.00068128	6.14121e-05	0.0000000E+000	-100.04	0.00795527	0.00127827	0.00805731	9.12836	1.27217e-06
158486	123.396	18.2458	124.738	-8.41102	11.9555	-0.0529327	0.00324149	0.0550385	0.0011776	1	11	0.0982818	0.000787908	6.17193e-05	0.0000000E+000	-100.121	0.0079306	0.00117265	0.00801682	8.41102	3.07156e-07
141256	124.053	16.9431	125.204	-7.77734	12.5515	-0.0529341	0.00357873	0.0664997	0.00121778	1	11	0.112779	0.000900762	6.39492e-05	0.0000000E+000	-100.056	0.00791347	0.00108082	0.00798694	7.77734	2.22997e-06
125909	124.673	15.7986	125.67	-7.22207	13.0115	-0.0529437	0.00355919	0.0800097	0.0012645	1	11	0.128299	0.00102092	6.47331e-05	0.0000000E+000	-100.145	0.00789422	0.00100036	0.00795735	7.22207	7.83818e-07
112205	125.147	14.7788	126.017	-6.73492	13.6075	-0.0530348	0.00272911	0.0959775	0.00132004	1	11	0.12926	0.00102574	6.6715e-05	0.0000000E+000	-100.064	0.00788068	0.000930637	0.00793544	6.73492	1.98198e-06
100004	125.548	13.9226	126.318	-6.32791	14.2035	-0.0529263	0.00358003	0.11431	0.00138865	1	11	0.129721	0.00102694	6.96603e-05	0.0000000E+000	-100.121	0.0078683	0.000872548	0.00791653	6.32791	2.94531e-06
89129.3	125.861	13.1955	126.551	-5.98516	14.7985	-0.0529245	0.00341793	0.135323	0.00147129	1	11	0.129679	0.00102472	7.22855e-05	0.0000000E+000	-100.097	0.00785891	0.000823946	0.00790198	5.98516	2.62515e-06
79433.3	126.119	12.6104	126.747	-5.70994	15.3935	-0.0528813	0.0037306	0.158887	0.00157278	1	11	0.129543	0.00102206	7.42709e-05	0.0000000E+000	-100.073	0.00785056	0.000784966	0.00788971	5.70994	1.98543e-06
70795	126.304	12.1761	126.89	-5.50647	15.9885	-0.0529179	0.00342091	0.184633	0.00170009	1	11	0.129477	0.00102039	7.49983e-05	0.0000000E+000	-100.145	0.00784449	0.000756233	0.00788086	5.50647	7.27333e-07
63093.8	126.47	11.8685	127.025	-5.3612	16.5835	-0.0528788	0.00380858	0.212538	0.00185544	1	11	0.129426	0.0010189	7.40723e-05	0.0000000E+000	-100.056	0.007838	0.000735554	0.00787244	5.3612	-9.25986e-07
56237	126.593	11.6937	127.132	-5.27756	17.1795	-0.052905	0.00357724	0.242017	0.00204757	1	11	0.129314	0.00101717	7.28396e-05	0.0000000E+000	-100.073	0.0078325	0.000723505	0.00786584	5.27756	-1.23266e-06
50122.5	126.779	11.6789	127.316	-5.26323	17.6395	-0.0528633	0.00357966	0.271885	0.00228783	1	11	0.140527	0.00110376	7.36694e-05	0.0000000E+000	-100.097	0.00782135	0.000720502	0.00785447	5.26323	8.29775e-07
44666.7	126.829	11.767	127.374	-5.30066	18.2355	-0.0528878	0.00365709	0.302809	0.00258431	1	11	0.130247	0.00102256	7.37181e-05	0.0000000E+000	-100.056	0.00781734	0.000725284	0.00785092	5.30066	4.87315e-08
39814.1	126.99	12.0223	127.558	-5.40814	18.6945	-0.0528759	0.00351769	0.332503	0.00295363	1	11	0.139811	0.00109606	7.49315e-05	0.0000000E+000	-100.064	0.00780467	0.000738877	0.00783957	5.40814	1.21339e-06
35481	126.995	12.4013	127.599	-5.57739	19.2895	-0.0528734	0.00368351	0.361706	0.00341665	1	11	0.130036	0.0010191	7.4595e-05	0.0000000E+000	-100.081	0.00779997	0.000761686	0.00783707	5.57739	-3.3654e-07
31621.1	127.188	12.9458	127.846	-5.81178	19.7495	-0.0528582	0.00375536	0.38879	0.00398657	1	11	0.137725	0.00107728	7.51172e-05	0.0000000E+000	-100.073	0.00778174	0.000792057	0.00782194	5.81178	5.22248e-07
28188.1	127.188	13.6271	127.916	-6.11538	20.3455	-0.0528673	0.00376485	0.414336	0.00470224	1	11	0.129661	0.00101364	7.5024e-05	0.0000000E+000	-100.097	0.00777312	0.000832818	0.00781761	6.11538	-9.31936e-08
25116.9	127.381	14.4741	128.201	-6.4826	20.8045	-0.0528643	0.00362042	0.437787	0.00558036	1	11	0.135503	0.00105695	7.52867e-05	0.0000000E+000	-100.048	0.00775037	0.000880659	0.00780025	6.4826	2.6268e-07
22389	127.517	15.4906	128.454	-6.92628	21.2635	-0.0528479	0.003677	0.458899	0.00667353	1	11	0.14071	0.00109541	7.49288e-05	0.0000000E+000	-100.073	0.00772806	0.000938795	0.00778488	6.92628	-3.57929e-07
19948.8	127.585	16.676	128.67	-7.44662	21.8585	-0.052868	0.00366993	0.478424	0.00803598	1	11	0.129638	0.00100753	7.7229e-05	0.0000000E+000	-100.185	0.00770626	0.00100725	0.00777181	7.44662	2.30028e-06
17786.9	127.78	18.0689	129.051	-8.04862	22.3175	-0.0528577	0.00372632	0.495208	0.00970793	1	11	0.133158	0.00103182	7.7103e-05	0.0000000E+000	-100.089	0.00767252	0.00108494	0.00774885	8.04862	-1.26099e-07
15847.7	128.016	19.6684	129.519	-8.73458	22.7775	-0.0528663	0.00368575	0.510607	0.0117749	1	11	0.136195	0.00105155	7.68937e-05	0.0000000E+000	-100.089	0.00763136	0.00117248	0.0077209	8.73458	-2.09234e-07
14121.9	128.26	21.4971	130.049	-9.51471	23.2365	-0.0528534	0.00369636	0.52426	0.0143251	1	11	0.13872	0.00106668	7.80952e-05	0.0000000E+000	-100.113	0.00758365	0.00127107	0.00768943	9.51471	1.20145e-06
12590.9	128.469	23.5438	130.609	-10.385	23.8325	-0.0528651	0.00364275	0.536891	0.0174459	1	11	0.129259	0.000989663	7.89043e-05	0.0000000E+000	-100.04	0.00753103	0.00138016	0.00765645	10.385	8.09183e-07
11217.7	128.788	25.8765	131.362	-11.3607	24.2925	-0.0528588	0.00377787	0.548291	0.0212755	1	11	0.130819	0.000995867	7.86389e-05	0.0000000E+000	-100.129	0.00746338	0.00149956	0.00761253	11.3607	-2.65412e-07
10002.2	129.183	28.4828	132.286	-12.4339	24.7515	-0.0528665	0.00369003	0.558651	0.0258989	1	11	0.132074	0.000998403	7.8764e-05	0.0000000E+000	-100.064	0.0073821	0.00162764	0.0075594	12.4339	1.25071e-07
8914.93	129.632	31.4155	133.385	-13.6226	25.2339	-0.0528106	0.0040403	0.568274	0.0315235	1	11	0.133063	0.000997592	7.92308e-05	0.0000000E+000	-100.129	0.0072862	0.00176576	0.00749711	13.6226	4.66779e-07
7944	130.176	34.6783	134.716	-14.9169	25.76	-0.0527768	0.00418137	0.577727	0.0382825	1	11	0.133843	0.000993522	7.91853e-05	0.0000000E+000	-100.121	0.00717286	0.00191082	0.00742302	14.9169	-4.55201e-08
7082.23	130.805	38.316	136.302	-16.3266	26.3369	-0.0527696	0.004256	0.586502	0.0463476	1	11	0.134432	0.000986285	8.05489e-05	0.0000000E+000	-100.129	0.00704081	0.00206242	0.00733666	16.3266	1.36364e-06
6307.73	131.539	42.3824	138.198	-17.8592	26.9716	-0.0527651	0.00400456	0.595334	0.0559921	1	11	0.134877	0.000975963	8.11827e-05	0.0000000E+000	-100.081	0.00688729	0.00221912	0.00723597	17.8592	6.33824e-07
5621.06	132.374	46.8817	140.43	-19.5022	27.6723	-0.0527544	0.00402578	0.603947	0.0673107	1	11	0.135186	0.000962655	8.10716e-05	0.0000000E+000	-100.105	0.00671243	0.00237729	0.00712097	19.5022	-1.11106e-07
5011.6	133.325	51.8173	143.04	-21.2389	28.4327	-0.0527416	0.00412796	0.61287	0.0804271	1	11	0.135384	0.000946477	8.15992e-05	0.0000000E+000	-100.129	0.0065162	0.00253256	0.00699104	21.2389	5.27548e-07
4466.43	134.413	57.2817	146.109	-23.0819	29.1927	-0.0527355	0.00415029	0.622077	0.0956137	1	11	0.135517	0.000927507	8.16713e-05	0.0000000E+000	-100.081	0.00629628	0.00268324	0.00684419	23.0819	7.21224e-08
3981.27	135.72	63.3124	149.761	-25.0087	29.9527	-0.0527707	0.00391151	0.631406	0.112846	1	11	0.135569	0.00090523	8.22848e-05	0.0000000E+000	-100.073	0.00605125	0.00282286	0.00667729	25.0087	6.13473e-07
3546.6	137.241	69.9973	154.061	-27.023	30.7129	-0.0527442	0.00384581	0.641102	0.132344	1	11	0.135554	0.000879876	8.25279e-05	0.0000000E+000	-100.081	0.00578229	0.00294915	0.00649094	27.023	2.4315e-07
3161.01	139.009	77.3317	159.071	-29.0875	31.4727	-0.0527424	0.00403602	0.651083	0.153875	1	11	0.135513	0.000851901	8.32073e-05	0.0000000E+000	-100.089	0.00549363	0.00305615	0.00628649	29.0875	6.79356e-07
2817.3	140.979	85.3545	164.804	-31.1925	32.2329	-0.052759	0.00375051	0.661853	0.177533	1	11	0.135426	0.000821737	8.44534e-05	0.0000000E+000	-100.073	0.0051906	0.00314261	0.00606781	31.1925	1.24617e-06
2510.8	143.253	94.2011	171.451	-33.3283	32.9927	-0.0527364	0.00398409	0.672901	0.203135	1	11	0.135313	0.000789222	8.58766e-05	0.0000000E+000	-100.064	0.00487333	0.00320463	0.00583258	33.3283	1.42318e-06
2237.85	145.804	103.869	179.019	-35.4656	33.7529	-0.0527579	0.003878	0.684703	0.230504	1	11	0.13519	0.000755171	8.6751e-05	0.0000000E+000	-100.032	0.0045496	0.00324108	0.00558601	35.4656	8.74328e-07
1995.64	148.604	114.383	187.528	-37.5862	34.5127	-0.0527527	0.00416946	0.697229	0.2594	1	11	0.135054	0.00072018	8.79338e-05	0.0000000E+000	-100.113	0.00422571	0.00325261	0.00533255	37.5862	1.18283e-06
1778.29	151.78	126.011	197.271	-39.7001	35.272	-0.0527504	0.0041408	0.710248	0.289799	1	11	0.134913	0.000683894	8.89555e-05	0.0000000E+000	-100.097	0.00390021	0.00323803	0.00506917	39.7001	1.02176e-06
1585.51	155.249	138.598	208.115	-41.7567	36.0317	-0.0527559	0.00426493	0.724261	0.32122	1	11	0.134776	0.000647607	9.0366e-05	0.0000000E+000	-100.121	0.00358446	0.00320001	0.00480504	41.7567	1.41045e-06
1411.84	159.067	152.495	220.357	-43.7915	36.7932	-0.0527603	0.00414991	0.739231	0.354029	1	11	0.134645	0.000611033	9.1339e-05	0.0000000E+000	-100.064	0.00327588	0.00314053	0.0045381	43.7915	9.7304e-07
1258.79	163.364	167.614	234.056	-45.7358	37.5529	-0.0527548	0.00406243	0.75432	0.386846	1	11	0.134526	0.000574758	9.27441e-05	0.0000000E+000	-100.073	0.00298206	0.00305965	0.00427248	45.7358	1.4051e-06
1121.79	167.886	184.106	249.16	-47.6383	38.3114	-0.0527644	0.00408328	0.770617	0.420743	1	11	0.134415	0.000539473	9.3208e-05	0.0000000E+000	-100.032	0.00270432	0.00296558	0.00401348	47.6383	4.63836e-07
1000.32	173.01	202.184	266.103	-49.4462	39.0707	-0.0527657	0.00392899	0.786927	0.454285	1	11	0.134314	0.000504744	9.41046e-05	0.0000000E+000	-100.089	0.00244327	0.00285527	0.00375794	49.4462	8.96622e-07
891.427	178.694	222.186	285.129	-51.192	39.8295	-0.052759	0.00395467	0.803557	0.487945	1	11	0.134217	0.000470726	9.50137e-05	0.0000000E+000	-100.073	0.002198	0.00273298	0.00350719	51.192	9.09086e-07
794.238	184.674	243.927	305.949	-52.8711	40.589	-0.0527576	0.00405499	0.821505	0.522193	1	11	0.134142	0.000438447	9.56343e-05	0.0000000E+000	-100.064	0.00197291	0.00260592	0.00326852	52.8711	6.20642e-07
707.509	191.719	268.586	329.992	-54.4804	41.6034	-0.052771	0.000406283	0.837537	0.554835	1	12	0.137778	0.00041752	9.67118e-05	0.0000000E+000	-100.089	0.00176059	0.00246647	0.00303037	54.4804	1.07749e-06
631.01	198.974	294.845	355.702	-55.9868	42.3614	-0.0527761	0.000409934	0.855443	0.587766	1	12	0.137131	0.000385522	9.69436e-05	0.0000000E+000	-100.081	0.00157262	0.00233035	0.00281134	55.9868	2.31767e-07
562.339	206.859	323.857	384.284	-57.4321	43.1179	-0.0527757	0.000400358	0.873914	0.620684	1	12	0.136569	0.000355387	9.67624e-05	0.0000000E+000	-100.121	0.00140078	0.00219305	0.00260224	57.4321	-1.81136e-07
501.444	215.395	355.573	415.725	-58.7939	43.8752	-0.052777	0.000406896	0.892624	0.653002	1	12	0.136086	0.000327346	9.71108e-05	0.0000000E+000	-100.073	0.0012463	0.00205739	0.00240544	58.7939	3.48389e-07
446.859	224.77	390.721	450.76	-60.0895	44.6319	-0.0527703	0.000409317	0.911554	0.684898	1	12	0.135682	0.000301008	9.68812e-05	0.0000000E+000	-100.073	0.00110623	0.00192299	0.00221847	60.0895	-2.29661e-07
398.089	234.954	429.455	489.525	-61.317	45.3947	-0.0527774	0.000391545	0.930941	0.716485	1	12	0.135339	0.00027647	9.6947e-05	0.0000000E+000	-100.105	0.000980468	0.00179212	0.0020428	61.317	6.57935e-08
354.66	246.035	472.124	532.386	-62.475	46.155	-0.0527666	0.000409799	0.9505	0.747502	1	12	0.135054	0.000253676	9.69151e-05	0.0000000E+000	-100.089	0.000868048	0.00166573	0.00187834	62.475	-3.1835e-08
316.316	257.94	518.709	579.303	-63.5601	46.9119	-0.0527754	0.000391841	0.970008	0.777699	1	12	0.134815	0.000232719	9.71327e-05	0.0000000E+000	-100.048	0.000768612	0.00154565	0.00172621	63.5601	2.17558e-07
281.894	270.971	570.294	631.396	-64.5856	47.6674	-0.0527755	0.000409165	0.989999	0.807661	1	12	0.134613	0.000213199	9.72026e-05	0.0000000E+000	-100.113	0.000679703	0.00143052	0.00158379	64.5856	6.98908e-08
251.044	285.204	627.462	689.238	-65.5565	48.4239	-0.0527773	0.000387072	1.01037	0.837372	1	12	0.13445	0.00019507	9.7505e-05	0.0000000E+000	-100.073	0.000600367	0.00132084	0.00145088	65.5565	3.02433e-07
223.925	300.338	689.518	752.088	-66.4632	49.1867	-0.0527805	0.000391188	1.03079	0.866413	1	12	0.134311	0.000178584	9.77703e-05	0.0000000E+000	-100.145	0.000530972	0.00121901	0.00132963	66.4632	2.65255e-07
199.553	316.933	758.764	822.295	-67.3299	49.9482	-0.0527775	0.000384333	1.05113	0.894979	1	12	0.134195	0.000163196	9.79354e-05	0.0000000E+000	-100.105	0.000468719	0.00112215	0.00121611	67.3299	1.65173e-07
177.781	335.111	835.383	900.091	-68.142	50.7163	-0.0527798	0.000406798	1.07164	0.923096	1	12	0.134099	0.000148983	9.79663e-05	0.0000000E+000	-100.081	0.000413633	0.00103113	0.001111	68.142	3.08653e-08
158.428	354.501	919.459	985.431	-68.9157	51.4827	-0.0527699	0.000405941	1.09258	0.951188	1	12	0.134023	0.000136005	9.80912e-05	0.0000000E+000	-100.081	0.00036506	0.000946846	0.00101478	68.9157	1.24877e-07
141.311	375.373	1011.37	1078.78	-69.6374	52.2359	-0.0527813	0.000389062	1.11361	0.978782	1	12	0.133959	0.000124176	9.80812e-05	0.0000000E+000	-100.064	0.00032255	0.000869046	0.000926973	69.6374	-9.97585e-09
125.846	398.244	1114.45	1183.47	-70.3359	52.9914	-0.0527762	0.000393198	1.13481	1.0063	1	12	0.1339	0.000113142	9.82524e-05	0.0000000E+000	-100.056	0.000284339	0.000795697	0.000844975	70.3359	1.71183e-07
112.19	422.615	1227.16	1297.9	-70.9971	53.7369	-0.0527757	0.000431423	1.15602	1.03345	1	12	0.133863	0.000103138	9.84569e-05	0.0000000E+000	-100.073	0.00025088	0.000728489	0.000770478	70.9971	2.04502e-07
100.032	449.075	1351.77	1424.41	-71.6229	54.4967	-0.0527743	0.000423356	1.177	1.06001	1	12	0.133826	9.39516e-05	9.85703e-05	0.0000000E+000	-100.113	0.000221333	0.00066624	0.000702043	71.6229	1.13399e-07
89.116	478.21	1491.19	1565.99	-72.2194	55.2627	-0.0527812	0.000378109	1.19766	1.08597	1	12	0.133796	8.54387e-05	9.85942e-05	0.0000000E+000	-100.121	0.000195003	0.000608071	0.000638574	72.2194	2.38684e-08
79.4155	509.531	1645.36	1722.45	-72.7934	56.0272	-0.0527803	0.000367975	1.21802	1.11143	1	12	0.133777	7.76668e-05	9.87637e-05	0.0000000E+000	-100.113	0.000171742	0.000554585	0.000580568	72.7934	1.69591e-07
70.8387	543.038	1814.25	1893.78	-73.3366	56.7784	-0.0527853	0.000394315	1.23838	1.13655	1	12	0.13376	7.06315e-05	9.88074e-05	0.0000000E+000	-100.097	0.000151417	0.000505871	0.000528046	73.3366	4.36294e-08
63.0823	578.647	2002.64	2084.56	-73.8838	57.5588	-0.0527778	0.000405733	1.25982	1.16275	1	12	0.133742	6.41582e-05	9.88913e-05	0.0000000E+000	-100.073	0.000133163	0.000460864	0.000479716	73.8838	8.39148e-08
56.2418	617.749	2209.5	2294.23	-74.3796	58.3024	-0.0527789	0.0003945	1.28076	1.1879	1	12	0.133724	5.82873e-05	9.89389e-05	0.0000000E+000	-100.097	0.000117365	0.000419778	0.000435876	74.3796	4.76036e-08
50.1444	659.759	2437.44	2525.16	-74.8543	59.0592	-0.0527805	0.000393197	1.30216	1.21327	1	12	0.133721	5.29555e-05	9.90037e-05	0.0000000E+000	-100.04	0.000103469	0.000382259	0.000396015	74.8543	6.48138e-08
44.6712	705.767	2696.43	2787.26	-75.3324	60.0752	-0.0527742	4.04904e-05	1.32131	1.23659	1	13	0.134031	4.80871e-05	9.91647e-05	0.0000000E+000	-100.081	9.08461e-05	0.000347083	0.000358775	75.3324	1.60956e-07
39.8089	755.121	2980.48	3074.65	-75.783	60.8377	-0.0527771	3.86428e-05	1.34139	1.26048	1	13	0.133964	4.35705e-05	9.9152e-05	0.0000000E+000	-100.081	7.98777e-05	0.000315279	0.00032524	75.783	-1.27031e-08
35.4653	808.363	3296.33	3394	-76.2212	61.5881	-0.0527714	3.92164e-05	1.3614	1.28417	1	13	0.133907	3.94542e-05	9.92038e-05	0.0000000E+000	-100.081	7.01751e-05	0.000286159	0.000294638	76.2212	5.18218e-08
31.6296	865.773	3642.92	3744.39	-76.6312	62.3124	-0.0527826	3.99371e-05	1.38127	1.30742	1	13	0.133866	3.57512e-05	9.9188e-05	0.0000000E+000	-100.097	6.17508e-05	0.000259829	0.000267066	76.6312	-1.57922e-08
28.1701	928.357	4032.9	4138.37	-77.0366	63.1178	-0.0527823	4.40363e-05	1.40092	1.33042	1	13	0.133824	3.23374e-05	9.91187e-05	0.0000000E+000	-100.097	5.4207e-05	0.000235482	0.000241641	77.0366	-6.92451e-08
25.1044	996.494	4464.67	4574.52	-77.4181	63.8739	-0.0527747	4.09651e-05	1.41997	1.35259	1	13	0.133795	2.92477e-05	9.91197e-05	0.0000000E+000	-100.024	4.76193e-05	0.000213352	0.000218602	77.4181	9.23251e-10
22.3854	1069.12	4940.94	5055.29	-77.7905	64.5604	-0.0527774	3.55676e-05	1.43895	1.37459	1	13	0.133774	2.64622e-05	9.9209e-05	0.0000000E+000	-100.024	4.18346e-05	0.000193338	0.000197813	77.7905	8.92857e-08
19.9553	1148.5	5473.3	5592.5	-78.1492	65.3222	-0.0527772	3.84467e-05	1.45718	1.39572	1	13	0.133759	2.39175e-05	9.92226e-05	0.0000000E+000	-100.073	3.67212e-05	0.000175	0.000178811	78.1492	1.36336e-08
17.7961	1235.73	6061.49	6186.17	-78.4772	66.1665	-0.0527808	3.88909e-05	1.47542	1.41655	1	13	0.13374	2.16192e-05	9.92416e-05	0.0000000E+000	-100.016	3.2291e-05	0.000158393	0.000161651	78.4772	1.90282e-08
15.8576	1331.95	6720.92	6851.63	-78.7904	66.8879	-0.052782	3.9946e-05	1.49333	1.43689	1	13	0.133728	1.95177e-05	9.91673e-05	0.0000000E+000	-100.048	2.83727e-05	0.000143166	0.000145951	78.7904	-7.4364e-08
14.119	1436.53	7458.55	7595.63	-79.0982	67.6903	-0.0527788	4.24975e-05	1.51134	1.45728	1	13	0.133719	1.76047e-05	9.9259e-05	0.0000000E+000	-100.145	2.48994e-05	0.000129279	0.000131655	79.0982	9.17637e-08
12.6008	1551.71	8263.59	8408.01	-79.365	68.5809	-0.0527864	3.69473e-05	1.52846	1.4764	1	13	0.133708	1.59024e-05	9.92638e-05	0.0000000E+000	-100.113	2.19495e-05	0.000116891	0.000118934	79.365	4.77287e-09
11.2249	1678.62	9175.84	9328.12	-79.633	69.2649	-0.0527818	4.23186e-05	1.54523	1.49519	1	13	0.133703	1.43333e-05	9.9257e-05	0.0000000E+000	-100.032	1.92915e-05	0.000105453	0.000107203	79.633	-6.74899e-09
10.0032	1825.16	10181.1	10343.4	-79.8366	70.0257	-0.0527811	4.71609e-05	1.56274	1.51408	1	13	0.133694	1.29256e-05	9.91882e-05	0.0000000E+000	-100.081	1.70598e-05	9.51631e-05	9.66802e-05	79.8366	-6.8856e-08
8.91838	1978.13	11301.1	11472.9	-80.0716	70.87	-0.0527818	3.73942e-05	1.57911	1.53217	1	13	0.133692	1.16528e-05	9.93035e-05	0.0000000E+000	-100.056	1.50282e-05	8.58564e-05	8.71617e-05	80.0716	1.15274e-07
7.93953	2154.88	12560.2	12743.7	-80.2649	71.8087	-0.0527791	3.98284e-05	1.59598	1.55035	1	13	0.133689	1.04905e-05	9.92118e-05	0.0000000E+000	-100.081	1.32688e-05	7.734e-05	7.847e-05	80.2649	-9.16578e-08
7.07654	2351.16	13954.7	14151.4	-80.4363	72.367	-0.0527863	4.03647e-05	1.61168	1.56719	1	13	0.133684	9.44669e-06	9.92256e-05	0.0000000E+000	-100.113	1.17404e-05	6.96823e-05	7.06645e-05	80.4363	1.38149e-08
6.31058	2625.21	15536.5	15756.8	-80.4093	72.9872	-0.0527952	7.47939e-05	1.62329	1.57823	1	13	0.133668	8.48323e-06	9.92688e-05	0.0000000E+000	-100.04	1.05738e-05	6.25778e-05	6.34648e-05	80.4093	4.32268e-08
5.6205	2830.16	17240	17470.8	-80.6773	73.6726	-0.0527819	4.18416e-05	1.64251	1.59941	1	13	0.133686	7.65197e-06	9.93358e-05	0.0000000E+000	-100.129	9.27232e-06	5.64825e-05	5.72385e-05	80.6773	6.69452e-08
5.01444	3100.32	19196.6	19445.3	-80.8257	74.4302	-0.0527653	2.32655e-05	1.65338	1.61135	1	13	0.133684	6.87485e-06	9.93697e-05	0.0000000E+000	-100.081	8.19929e-06	5.07684e-05	5.14263e-05	80.8257	3.38771e-08
4.46939	3489.89	21301.7	21585.6	-80.6958	75.2715	-0.0527708	1.77648e-05	1.6717	1.628	1	13	0.133677	6.19288e-06	9.93035e-05	0.0000000E+000	-100.089	7.49e-06	4.57176e-05	4.63271e-05	80.6958	-6.61647e-08
3.97785	3784.99	23700.6	24000.9	-80.9265	76.2082	-0.0527778	4.19663e-05	1.68816	1.64617	1	13	0.133685	5.56998e-06	9.92668e-05	0.0000000E+000	-100.024	6.57067e-06	4.11437e-05	4.16651e-05	80.9265	-3.66511e-08
3.55114	4271.43	26241.8	26587.1	-80.7549	77.2494	-0.0527801	5.09545e-05	1.70789	1.66381	1	13	0.133675	5.02779e-06	9.93771e-05	0.0000000E+000	-100.048	6.04268e-06	3.71236e-05	3.76122e-05	80.7549	1.1028e-07
3.1604	4674.31	29263.3	29634.3	-80.9247	78.7762	-0.0527723	-4.47988e-08	1.7209	1.67808	1	14	0.1337	4.51166e-06	9.93735e-05	0.0000000E+000	-100.089	5.32265e-06	3.33222e-05	3.37447e-05	80.9247	-3.58375e-09
2.81836	5340.24	32447.2	32883.7	-80.6539	80.0717	-0.0527708	-2.48997e-06	1.74039	1.69449	1	14	0.133695	4.06569e-06	9.92676e-05	0.0000000E+000	-100.097	4.93854e-06	3.00065e-05	3.04102e-05	80.6539	-1.05937e-07
2.51367	5980.53	36161.6	36652.8	-80.6092	81.5157	-0.0527761	1.75812e-05	1.75091	1.70429	1	14	0.133691	3.6475e-06	9.93122e-05	0.0000000E+000	-100.073	4.4517e-06	2.69174e-05	2.7283e-05	80.6092	4.45446e-08
2.23982	6602.52	40074.5	40614.7	-80.6442	83.1303	-0.0527725	-7.42776e-07	1.77312	1.72626	1	14	0.133688	3.29161e-06	9.93655e-05	0.0000000E+000	-100.105	4.0026e-06	2.42941e-05	2.46216e-05	80.6442	5.3397e-08
1.99706	7442.95	44388.4	45008.1	-80.4813	84.9337	-0.0527652	4.70181e-06	1.79539	1.74629	1	14	0.133685	2.97024e-06	9.92557e-05	0.0000000E+000	-100.097	3.67421e-06	2.19123e-05	2.22182e-05	80.4813	-1.0981e-07
1.77961	8476.29	49243.2	49967.4	-80.2333	86.9518	-0.0527697	7.68031e-06	1.81614	1.76387	1	14	0.133682	2.67539e-06	9.9383e-05	0.0000000E+000	-100.056	3.39495e-06	1.9723e-05	2.00131e-05	80.2333	1.27212e-07