File: data/DE_49_7_30.mpt
EC-Lab ASCII FILE
Nb header lines : 75

Potentio Electrochemical Impedance Spectroscopy

Run on channel : 3 (SN 20921)
User :
CE vs. WE compliance from -10 V to 10 V
Electrode connection : standard
Ewe ctrl range : min = -10.00 V, max = 10.00 V
Safety Limits :
	Do not start on E overload
Acquisition started on : 01/22/2020 09:36:27
Technique started on : 01/22/2020 09:36:28
Saved on :
	File : DE_49_7_30.mpr
	Directory : P:\Chemistry\Data\VMP3\Kyler\DOE\DE_49\30C\
	Host : 10.0.4.99
Device : VMP3 (SN 0183)
Address : USB
EC-Lab for windows v11.33 (software)
Internet server v11.32 (firmware)
Command interpretor v11.33 (firmware)
Electrode material :
Initial state :
Electrolyte :
Comments :
Electrode surface area : 0.001 cm²
Characteristic mass : 0.001 g
Equivalent Weight : 0.000 g/eq.
Density : 0.000 g/cm3
Record Analogic IN 1
Cycle Definition : Charge/Discharge alternance
External device configuration :
   device type : Thermostat
   device name : Other
   Analog OUT :
      mode : E/V
      unit : T/°C
      max : 400.000 at 5.000 V
      min : -100.000 at 0.000 V
      current : 0.000
   Analog IN 1 :
      unit : T/°C
      max : 400.000 at 5.000 V
      min : -100.000 at 0.000 V
Mode                Single sine
E (V)               0.0000
vs.                 Eoc
tE (h:m:s)          0:00:0.0000
record              0
dI                  1.000
unit dI             mA
dt (s)              0.000
fi                  1.000
unit fi             MHz
ff                  1.000
unit ff             Hz
Nd                  20
Points              per decade
spacing             Logarithmic
Va (mV)             128.0
pw                  0.50
Na                  3
corr                0
E range min (V)     -10.000
E range max (V)     10.000
I Range             Auto
Bandwidth           5
nc cycles           0
goto Ns'            0
nr cycles           0
inc. cycle          1

freq/Hz	Re(Z)/Ohm	-Im(Z)/Ohm	|Z|/Ohm	Phase(Z)/deg	time/s	<Ewe>/V	<I>/mA	Cs/µF	Cp/µF	cycle number	I Range	|Ewe|/V	|I|/A	(Q-Qo)/mA.h	Analog OUT/V	Analog IN 1/V	Re(Y)/Ohm-1	Im(Y)/Ohm-1	|Y|/Ohm-1	Phase(Y)/deg	dq/mA.h
1.00002e+06	91.0738	291.811	305.693	-72.6669	1.64647	-0.017024	0.00253649	0.000545394	0.000496985	1	11	0.000487183	1.5937e-06	4.7891e-07	0.0000000E+000	-100.088	0.000974592	0.00312271	0.00327126	72.6669	4.7891e-07
891247	102.427	317.501	333.614	-72.1202	2.24249	-0.0165926	0.00260154	0.000562441	0.000509424	1	11	0.000926202	2.77627e-06	8.61755e-07	0.0000000E+000	-100.112	0.000920288	0.00285271	0.00299748	72.1202	3.82845e-07
794333	116.407	346.015	365.071	-71.4059	2.83847	-0.0162768	0.00256762	0.000579059	0.000520185	1	11	0.00361046	9.88975e-06	1.25594e-06	0.0000000E+000	-100.112	0.000873423	0.00259621	0.00273919	71.4059	3.94188e-07
707950	131.234	377.797	399.941	-70.8445	3.43449	-0.0159563	0.00257414	0.000595058	0.000530988	1	11	0.00779204	1.9483e-05	1.62838e-06	0.0000000E+000	-100.096	0.000820454	0.00236193	0.00250037	70.8445	3.72439e-07
630957	147.332	414.655	440.051	-70.4392	4.03049	-0.0156938	0.00256818	0.000608323	0.000540133	1	11	0.0135412	3.07719e-05	2.06577e-06	0.0000000E+000	-100.088	0.000760836	0.00214131	0.00227246	70.4392	4.37389e-07
562342	165.939	453.846	483.231	-69.9162	4.62647	-0.0154892	0.00252792	0.000623607	0.000550071	1	11	0.0207077	4.28527e-05	2.48993e-06	0.0000000E+000	-100.088	0.000710622	0.00194357	0.0020694	69.9162	4.24162e-07
501206	236.666	507.308	559.797	-64.9903	5.52747	-0.015365	0.000280132	0.000625939	0.000514061	1	12	0.0122975	2.19678e-05	2.82176e-06	0.0000000E+000	-100.112	0.000755224	0.00161887	0.00178636	64.9903	3.31829e-07
446686	261.026	554.183	612.579	-64.7791	6.12348	-0.0152586	0.000301144	0.000642932	0.000526195	1	12	0.016958	2.76829e-05	2.91182e-06	0.0000000E+000	-100.12	0.0006956	0.00147682	0.00163244	64.7791	9.0063e-08
398103	287.05	605.064	669.701	-64.6197	6.71949	-0.0152232	0.000287869	0.000660729	0.00053934	1	12	0.0225505	3.36725e-05	2.87718e-06	0.0000000E+000	-100.072	0.000640023	0.00134908	0.0014932	64.6197	-3.46482e-08
354810	316.586	656.458	728.81	-64.2537	7.31549	-0.0152069	0.000294805	0.000683309	0.000554374	1	12	0.0292234	4.00973e-05	2.87813e-06	0.0000000E+000	-100.128	0.000596023	0.00123589	0.0013721	64.2537	9.51809e-10
316230	346.444	712.381	792.156	-64.0655	7.91048	-0.015204	0.000314754	0.000706488	0.000571358	1	12	0.0370271	4.67421e-05	2.99374e-06	0.0000000E+000	-100.104	0.000552093	0.00113525	0.00126238	64.0655	1.1561e-07
281835	383.623	773.48	863.387	-63.62	8.50548	-0.0152204	0.000286042	0.000730091	0.000585954	1	12	0.0463224	5.3652e-05	2.91611e-06	0.0000000E+000	-100.128	0.000514627	0.00103762	0.00115823	63.62	-7.76247e-08
251188	422.285	837.336	937.793	-63.2373	9.10147	-0.0152118	0.000295477	0.000756697	0.000603264	1	12	0.0571217	6.09108e-05	2.99815e-06	0.0000000E+000	-100.096	0.000480166	0.000952106	0.00106633	63.2373	8.20334e-08
223872	464.471	904.313	1016.62	-62.8142	9.6975	-0.0151969	0.000335524	0.000786144	0.000622046	1	12	0.0697165	6.85768e-05	3.01733e-06	0.0000000E+000	-100.088	0.000449409	0.000874988	0.000983652	62.8142	1.91842e-08
199544	509.909	975.413	1100.65	-62.4011	10.2945	-0.0151814	0.000316563	0.0008177	0.000642199	1	12	0.0842676	7.65614e-05	3.17487e-06	0.0000000E+000	-100.072	0.000420912	0.000805169	0.000908551	62.4011	1.5754e-07
177832	557.796	1050.27	1189.21	-62.0274	10.8905	-0.0151673	0.000306626	0.000852135	0.000664659	1	12	0.101023	8.49503e-05	3.2111e-06	0.0000000E+000	-100.12	0.000394423	0.000742657	0.000840897	62.0274	3.62328e-08
158486	608.368	1130.36	1283.67	-61.7105	11.3495	-0.0151963	0.00027221	0.000888411	0.000688867	1	12	0.120272	9.36939e-05	3.17776e-06	0.0000000E+000	-100.112	0.000369196	0.000685972	0.000779015	61.7105	-3.33404e-08
141256	661.636	1214.91	1383.39	-61.4275	11.9455	-0.0151226	0.000304855	0.000927401	0.000715265	1	12	0.12881	9.31117e-05	3.28095e-06	0.0000000E+000	-100.096	0.000345722	0.000634825	0.00072286	61.4275	1.03188e-07
125909	716.07	1305.27	1488.79	-61.2508	12.5415	-0.0150893	0.000264845	0.000968417	0.000744386	1	12	0.130378	8.75737e-05	3.46135e-06	0.0000000E+000	-100.072	0.000323066	0.000588892	0.000671689	61.2508	1.80396e-07
112205	772.152	1403.31	1601.72	-61.1788	13.1375	-0.0151236	0.000289977	0.00101078	0.000775873	1	12	0.130401	8.14131e-05	3.45837e-06	0.0000000E+000	-100.104	0.000300976	0.000546994	0.000624331	61.1788	-2.97983e-09
100004	832.986	1510.4	1724.87	-61.1232	13.7335	-0.0150342	0.000274652	0.00105369	0.00080795	1	12	0.1303	7.55419e-05	3.66433e-06	0.0000000E+000	-100.136	0.00027998	0.000507669	0.000579755	61.1232	2.05959e-07
89129.3	897.541	1628.93	1859.84	-61.1453	14.3295	-0.0150213	0.000279536	0.00109622	0.000840914	1	12	0.130304	7.00619e-05	3.59642e-06	0.0000000E+000	-100.08	0.000259479	0.000470925	0.00053768	61.1453	-6.79085e-08
79433.3	960.813	1754.78	2000.6	-61.2975	14.9255	-0.014961	0.000291878	0.00114181	0.000878452	1	12	0.129933	6.49467e-05	3.72315e-06	0.0000000E+000	-100.08	0.000240058	0.00043843	0.000499849	61.2975	1.26729e-07
70795	1026.77	1892.57	2153.15	-61.519	15.5205	-0.0149876	0.000271369	0.00118786	0.000917739	1	12	0.129751	6.0261e-05	3.78654e-06	0.0000000E+000	-100.104	0.000221474	0.000408227	0.000464435	61.519	6.33967e-08
63093.8	1095.02	2042.44	2317.47	-61.8027	16.1165	-0.0149708	0.000283003	0.00123505	0.000959305	1	12	0.129533	5.58943e-05	3.79469e-06	0.0000000E+000	-100.104	0.00020389	0.000380297	0.000431506	61.8027	8.145e-09
56237	1168.68	2210.78	2500.67	-62.1379	16.7125	-0.0149611	0.000275135	0.00128012	0.00100053	1	12	0.129439	5.17618e-05	3.83902e-06	0.0000000E+000	-100.072	0.000186888	0.000353535	0.000399892	62.1379	4.43273e-08
50122.5	1247.1	2397.64	2702.58	-62.5194	17.1715	-0.0149518	0.000254291	0.00132435	0.00104235	1	12	0.138999	5.14321e-05	3.8451e-06	0.0000000E+000	-100.096	0.000170744	0.000328267	0.000370017	62.5194	6.08334e-09
44666.7	1331.89	2601.57	2922.68	-62.8895	17.7675	-0.0149606	0.000276925	0.00136962	0.00108519	1	12	0.129834	4.44227e-05	3.86472e-06	0.0000000E+000	-100.096	0.000155921	0.000304559	0.000342151	62.8895	1.96206e-08
39814.1	1421.88	2827.25	3164.66	-63.3013	18.2275	-0.0149426	0.0003001	0.0014139	0.00112848	1	12	0.135706	4.28817e-05	3.9332e-06	0.0000000E+000	-100.112	0.000141974	0.000282299	0.00031599	63.3013	6.84835e-08
35481	1518.75	3073.96	3428.68	-63.7074	18.6865	-0.014929	0.000285688	0.00145924	0.00117292	1	12	0.140255	4.09064e-05	4.00008e-06	0.0000000E+000	-100.08	0.000129191	0.000261484	0.000291657	63.7074	6.68792e-08
31621.1	1622.11	3348.72	3720.91	-64.1546	19.2825	-0.0149448	0.00027933	0.00150302	0.00121737	1	12	0.129634	3.48394e-05	4.01007e-06	0.0000000E+000	-100.096	0.000117161	0.000241869	0.000268751	64.1546	9.98299e-09
28188.1	1735.2	3652.75	4043.95	-64.5904	19.7425	-0.0149453	0.000261954	0.00154573	0.00126114	1	12	0.13183	3.25993e-05	4.02912e-06	0.0000000E+000	-100.088	0.000106106	0.000223362	0.000247283	64.5904	1.90517e-08
25116.9	1858.4	3985.35	4397.35	-64.9999	20.2025	-0.0149399	0.000293238	0.00158997	0.00130599	1	12	0.13335	3.03251e-05	4.06485e-06	0.0000000E+000	-100.08	9.61078e-05	0.000206103	0.00022741	64.9999	3.57312e-08
22389	1992.92	4364.82	4798.27	-65.4591	20.8275	-0.0149497	2.16435e-05	0.00162862	0.00134767	1	13	0.135657	2.82721e-05	4.09226e-06	0.0000000E+000	-100.104	8.65609e-05	0.000189582	0.000208409	65.4591	2.74058e-08
19948.8	2144.99	4774	5233.74	-65.8053	21.4235	-0.014937	2.32516e-05	0.00167117	0.00139047	1	13	0.130153	2.48681e-05	4.14886e-06	0.0000000E+000	-100.112	7.8307e-05	0.000174284	0.000191068	65.8053	5.66057e-08
17786.9	2311.91	5221.16	5710.12	-66.1164	21.8825	-0.0149416	2.31864e-05	0.00171377	0.00143284	1	13	0.138517	2.42582e-05	4.16648e-06	0.0000000E+000	-100.088	7.09057e-05	0.000160132	0.000175128	66.1164	1.76155e-08
15847.7	2498.54	5716.43	6238.61	-66.3908	22.4785	-0.0149212	2.44574e-05	0.00175683	0.00147504	1	13	0.129476	2.0754e-05	4.14666e-06	0.0000000E+000	-100.056	6.41965e-05	0.000146875	0.000160292	66.3908	-1.98147e-08
14121.9	2706.54	6259.75	6819.81	-66.6177	22.9375	-0.0149208	2.18109e-05	0.00180041	0.00151684	1	13	0.129741	1.90241e-05	4.16197e-06	0.0000000E+000	-100.032	5.81929e-05	0.00013459	0.000146632	66.6177	1.53042e-08
12590.9	2938.68	6858.11	7461.2	-66.805	23.3975	-0.014928	2.44946e-05	0.00184314	0.00155722	1	13	0.128087	1.71671e-05	4.17243e-06	0.0000000E+000	-100.096	5.27879e-05	0.000123193	0.000134027	66.805	1.04665e-08
11217.7	3205.29	7516.13	8171.05	-66.904	23.8575	-0.0149282	2.33446e-05	0.00188765	0.00159718	1	13	0.125527	1.53624e-05	4.16463e-06	0.0000000E+000	-100.096	4.80077e-05	0.000112574	0.000122383	66.904	-7.8006e-09
10002.2	3504.07	8235.66	8950.12	-66.9514	24.3175	-0.014917	2.07467e-05	0.00193208	0.00163593	1	13	0.122767	1.37168e-05	4.17124e-06	0.0000000E+000	-100.112	4.37437e-05	0.000102811	0.00011173	66.9514	6.60542e-09
8914.93	3842.62	9027.75	9811.52	-66.9432	24.7999	-0.0149197	1.70397e-05	0.00197753	0.00167421	1	13	0.12012	1.22427e-05	4.18172e-06	0.0000000E+000	-100.104	3.99167e-05	9.37792e-05	0.000101921	66.9432	1.04795e-08
7944	4235.33	9895	10763.3	-66.8278	25.326	-0.0149191	2.90548e-05	0.00202472	0.00171121	1	13	0.117761	1.0941e-05	4.17653e-06	0.0000000E+000	-100.08	3.6559e-05	8.54129e-05	9.29081e-05	66.8278	-5.18779e-09
7082.23	4685.93	10838.5	11808.1	-66.6192	25.9029	-0.0149028	2.94052e-05	0.00207338	0.00174686	1	13	0.115727	9.8006e-06	4.19002e-06	0.0000000E+000	-100.104	3.36074e-05	7.77337e-05	8.46875e-05	66.6192	1.34926e-08
6307.73	5207.63	11874.4	12966.1	-66.3197	26.7225	-0.0148997	2.7288e-05	0.00212489	0.00178212	1	13	0.126562	9.76098e-06	4.18486e-06	0.0000000E+000	-100.08	3.09756e-05	7.06302e-05	7.7124e-05	66.3197	-5.16479e-09
5621.06	5814.76	12998.7	14240	-65.8994	27.4232	-0.0148858	2.74483e-05	0.00217822	0.00181502	1	13	0.124979	8.7766e-06	4.19267e-06	0.0000000E+000	-100.08	2.86755e-05	6.41032e-05	7.02247e-05	65.8994	7.81451e-09
5011.6	6514.37	14205.9	15628.3	-65.3654	28.1837	-0.0148756	2.61101e-05	0.0022355	0.00184708	1	13	0.123674	7.91347e-06	4.19736e-06	0.0000000E+000	-100.048	2.66714e-05	5.81625e-05	6.39863e-05	65.3654	4.68695e-09
4466.43	7332.13	15505.9	17152	-64.6923	28.9427	-0.0148816	2.94387e-05	0.00229807	0.00187813	1	13	0.122598	7.14773e-06	4.20814e-06	0.0000000E+000	-100.088	2.49229e-05	5.27066e-05	5.83021e-05	64.6923	1.07837e-08
3981.27	8274.91	16898.6	18815.9	-63.9099	29.7027	-0.0148834	2.72358e-05	0.00236563	0.0019081	1	13	0.121726	6.4693e-06	4.21634e-06	0.0000000E+000	-100.056	2.3373e-05	4.77312e-05	5.31467e-05	63.9099	8.19663e-09
3546.6	9389.69	18382.7	20642	-62.9426	30.4629	-0.0148792	3.19732e-05	0.00244117	0.00193605	1	13	0.121008	5.86224e-06	4.22674e-06	0.0000000E+000	-100.04	2.20368e-05	4.31427e-05	4.8445e-05	62.9426	1.04034e-08
3161.01	10671.3	19921.2	22599.3	-61.8232	31.2227	-0.0148805	3.15688e-05	0.00252743	0.00196389	1	13	0.120428	5.32882e-06	4.23526e-06	0.0000000E+000	-100.08	2.08941e-05	3.90053e-05	4.42491e-05	61.8232	8.52066e-09
2817.3	12148.9	21519.5	24712	-60.5529	31.9829	-0.0148738	2.61156e-05	0.00262516	0.00199068	1	13	0.119956	4.85415e-06	4.24118e-06	0.0000000E+000	-100.056	1.98939e-05	3.52383e-05	4.04661e-05	60.5529	5.91531e-09
2510.8	13865.2	23153.6	26987.6	-59.0852	32.7427	-0.0148832	2.69729e-05	0.00273772	0.00201509	1	13	0.119578	4.43083e-06	4.2436e-06	0.0000000E+000	-100.056	1.9037e-05	3.17898e-05	3.7054e-05	59.0852	2.42224e-09
2237.85	15835.8	24784.6	29411.8	-57.424	33.503	-0.0148789	2.94087e-05	0.0028695	0.00203765	1	13	0.11927	4.05516e-06	4.24843e-06	0.0000000E+000	-100.088	1.83062e-05	2.8651e-05	3.4e-05	57.424	4.832e-09
1995.64	18006.2	26288.6	31864	-55.591	34.2627	-0.0148752	2.89652e-05	0.00303369	0.00206493	1	13	0.119013	3.73502e-06	4.25519e-06	0.0000000E+000	-100.04	1.77347e-05	2.58921e-05	3.13834e-05	55.591	6.75916e-09
1778.29	20494.3	27864.3	34589.5	-53.6654	35.0229	-0.0148774	2.98075e-05	0.00321195	0.00208437	1	13	0.118819	3.43512e-06	4.26353e-06	0.0000000E+000	-100.088	1.71294e-05	2.32894e-05	2.89105e-05	53.6654	8.33873e-09
1585.51	23281.9	29100	37267.4	-51.338	36.0337	-0.0148814	2.51572e-06	0.00344952	0.00210324	1	14	0.123817	3.3224e-06	4.26763e-06	0.0000000E+000	-100.032	1.67633e-05	2.09525e-05	2.68331e-05	51.338	4.10386e-09
1411.84	26253.1	30278.2	40074.9	-49.0727	36.7942	-0.0148812	2.06499e-06	0.0037231	0.0021253	1	14	0.122708	3.06197e-06	4.26661e-06	0.0000000E+000	-100.072	1.63469e-05	1.88532e-05	2.49533e-05	49.0727	-1.02501e-09
1258.79	29384.7	31196.4	42856.5	-46.713	37.554	-0.0148823	2.2233e-06	0.00405286	0.00214752	1	14	0.12182	2.84251e-06	4.26901e-06	0.0000000E+000	-100.056	1.59988e-05	1.69852e-05	2.33337e-05	46.713	2.4035e-09
1121.79	32684.8	31849.7	45636.6	-44.2586	38.3124	-0.0148775	2.5845e-06	0.00445452	0.00216963	1	14	0.121083	2.6532e-06	4.26743e-06	0.0000000E+000	-100.08	1.56935e-05	1.52925e-05	2.19122e-05	44.2586	-1.58025e-09
1000.32	36038.1	32155.4	48298.1	-41.7413	39.0717	-0.0148765	2.46646e-06	0.00494798	0.00219318	1	14	0.120493	2.49478e-06	4.26655e-06	0.0000000E+000	-100.08	1.5449e-05	1.37846e-05	2.07047e-05	41.7413	-8.78786e-10
891.427	39432.7	32169	50889.9	-39.2074	39.8304	-0.0148857	3.20192e-06	0.00555005	0.00221773	1	14	0.120013	2.3583e-06	4.26574e-06	0.0000000E+000	-100.12	1.52263e-05	1.24215e-05	1.96503e-05	39.2074	-8.14442e-10
794.238	42769.6	31843.2	53321.9	-36.6687	40.59	-0.0148878	2.27344e-06	0.00629294	0.00224427	1	14	0.119621	2.24338e-06	4.26649e-06	0.0000000E+000	-100.072	1.50426e-05	1.11997e-05	1.8754e-05	36.6687	7.50133e-10
707.509	45963.3	31231.1	55569.8	-34.1953	41.3524	-0.0148794	2.15502e-06	0.00720279	0.00227508	1	14	0.119311	2.14706e-06	4.26682e-06	0.0000000E+000	-100.088	1.48845e-05	1.01137e-05	1.79954e-05	34.1953	3.25933e-10
631.01	48968.8	30382	57628.2	-31.8169	42.1104	-0.0148908	2.40117e-06	0.00830172	0.00230744	1	14	0.119068	2.06613e-06	4.26704e-06	0.0000000E+000	-100.088	1.47452e-05	9.14842e-06	1.73526e-05	31.8169	2.22981e-10
562.339	51724.6	29324.5	59458.9	-29.5505	42.8669	-0.0148864	2.07558e-06	0.0096514	0.00234757	1	14	0.118862	1.99905e-06	4.26901e-06	0.0000000E+000	-100.04	1.46306e-05	8.29463e-06	1.68183e-05	29.5505	1.97361e-09
501.444	54242.6	28146.1	61110.3	-27.4244	43.6242	-0.0148894	2.22533e-06	0.0112766	0.00239214	1	14	0.118701	1.9424e-06	4.26796e-06	0.0000000E+000	-100.072	1.45249e-05	7.53684e-06	1.63639e-05	27.4244	-1.05358e-09
446.859	56516.2	26852.7	62571.1	-25.4139	44.3809	-0.014888	1.74421e-06	0.0132636	0.00244281	1	14	0.118569	1.89495e-06	4.27034e-06	0.0000000E+000	-100.064	1.44353e-05	6.85867e-06	1.59818e-05	25.4139	2.37994e-09
398.089	58524.9	25586.6	63873.6	-23.6145	45.1437	-0.0148835	2.33031e-06	0.0156253	0.00250731	1	14	0.118465	1.85468e-06	4.27103e-06	0.0000000E+000	-100.064	1.43449e-05	6.27146e-06	1.56559e-05	23.6145	6.9197e-10
354.66	60283.4	24343.3	65013	-21.9896	45.904	-0.0148861	2.27232e-06	0.0184344	0.00258457	1	14	0.118379	1.82085e-06	4.27238e-06	0.0000000E+000	-100.096	1.42626e-05	5.75943e-06	1.53815e-05	21.9896	1.34892e-09
316.316	61824	23157.9	66019	-20.5349	46.6609	-0.0148885	2.22271e-06	0.021727	0.00267339	1	14	0.118316	1.79215e-06	4.27191e-06	0.0000000E+000	-100.072	1.41847e-05	5.31328e-06	1.51472e-05	20.5349	-4.73841e-10
281.894	63130.2	22060.3	66873.6	-19.2615	47.4164	-0.0148919	3.22447e-06	0.025593	0.00278507	1	14	0.118258	1.76838e-06	4.27259e-06	0.0000000E+000	-100.096	1.41165e-05	4.9329e-06	1.49536e-05	19.2615	6.85159e-10
251.044	64337.8	21081.6	67703.6	-18.1425	48.1729	-0.0148818	2.63688e-06	0.0300722	0.00291575	1	14	0.11822	1.74614e-06	4.27108e-06	0.0000000E+000	-100.08	1.4036e-05	4.59917e-06	1.47703e-05	18.1425	-1.5113e-09
223.925	65380.8	20229.6	68438.9	-17.1927	48.9357	-0.0148847	2.50579e-06	0.0351342	0.00306972	1	14	0.118184	1.72686e-06	4.26988e-06	0.0000000E+000	-100.088	1.39587e-05	4.31898e-06	1.46116e-05	17.1927	-1.19612e-09
199.553	66313.9	19553.5	69136.7	-16.4288	49.6972	-0.0148869	2.56229e-06	0.0407884	0.00326265	1	14	0.11815	1.70894e-06	4.26999e-06	0.0000000E+000	-100.088	1.38736e-05	4.0908e-06	1.44641e-05	16.4288	1.09176e-10
177.781	67152	19013.2	69791.8	-15.8087	50.4652	-0.0148868	2.36574e-06	0.0470847	0.00349446	1	14	0.118131	1.69262e-06	4.27153e-06	0.0000000E+000	-100.056	1.37864e-05	3.90342e-06	1.43283e-05	15.8087	1.53702e-09
158.428	67930.4	18636.5	70440.5	-15.3415	51.2318	-0.0148857	2.46196e-06	0.0539041	0.00377319	1	14	0.118111	1.67676e-06	4.27129e-06	0.0000000E+000	-100.104	1.36905e-05	3.75596e-06	1.41964e-05	15.3415	-2.35556e-10
141.311	68626.1	18400.5	71050.1	-15.0095	51.9849	-0.0148875	2.24472e-06	0.0612089	0.00410527	1	14	0.118099	1.66219e-06	4.27311e-06	0.0000000E+000	-100.064	1.35944e-05	3.64501e-06	1.40746e-05	15.0095	1.81249e-09
125.846	69375.5	18261.8	71738.8	-14.7475	52.7404	-0.0148894	2.61804e-06	0.0692531	0.00448762	1	14	0.118089	1.64609e-06	4.27217e-06	0.0000000E+000	-100.08	1.34803e-05	3.54841e-06	1.39395e-05	14.7475	-9.34383e-10
112.19	70103.4	18355.5	72466.6	-14.6726	53.4859	-0.0148887	1.95511e-06	0.0772859	0.00495857	1	14	0.118078	1.62942e-06	4.27077e-06	0.0000000E+000	-100.08	1.33494e-05	3.49535e-06	1.37995e-05	14.6726	-1.40516e-09
100.032	70808	18563.3	73200.9	-14.6903	54.2457	-0.0148872	1.80407e-06	0.0857088	0.00551193	1	14	0.118067	1.61291e-06	4.27116e-06	0.0000000E+000	-100.064	1.32145e-05	3.46436e-06	1.3661e-05	14.6903	3.93581e-10
89.116	71580.4	18928.5	74040.8	-14.8121	55.0127	-0.0148869	2.35921e-06	0.0943515	0.00616648	1	14	0.118063	1.59456e-06	4.27291e-06	0.0000000E+000	-100.04	1.30572e-05	3.45281e-06	1.35061e-05	14.8121	1.75221e-09
79.4155	72359.1	19434.6	74923.5	-15.034	55.7772	-0.0148897	2.06532e-06	0.103119	0.00693832	1	14	0.118052	1.57564e-06	4.27174e-06	0.0000000E+000	-100.104	1.28901e-05	3.4621e-06	1.33469e-05	15.034	-1.17019e-09
70.8387	73165.1	20060.9	75865.5	-15.3329	56.5284	-0.0148945	3.4861e-06	0.111995	0.00783089	1	14	0.118047	1.55601e-06	4.27319e-06	0.0000000E+000	-100.072	1.2712e-05	3.48547e-06	1.31812e-05	15.3329	1.44635e-09
63.0823	74053.9	20854.3	76934.3	-15.7277	57.3088	-0.0148858	2.66895e-06	0.120981	0.0088893	1	14	0.11804	1.5343e-06	4.27376e-06	0.0000000E+000	-100.056	1.25115e-05	3.52334e-06	1.29981e-05	15.7277	5.70788e-10
56.2418	74982.7	21760.1	78076.3	-16.1828	58.0533	-0.0148929	1.76882e-06	0.130047	0.0101014	1	14	0.118038	1.51183e-06	4.27511e-06	0.0000000E+000	-100.048	1.23005e-05	3.56963e-06	1.2808e-05	16.1828	1.35049e-09
50.1444	75904.1	22811.7	79257.8	-16.7273	58.8102	-0.0148927	1.58476e-06	0.139136	0.0115258	1	14	0.118037	1.48928e-06	4.27643e-06	0.0000000E+000	-100.112	1.20832e-05	3.63139e-06	1.26171e-05	16.7273	1.31598e-09
44.6712	77120.8	23950.5	80754.2	-17.2526	59.5742	-0.0148869	2.51287e-06	0.148757	0.0130851	1	14	0.118033	1.46163e-06	4.277e-06	0.0000000E+000	-100.104	1.18261e-05	3.67269e-06	1.23833e-05	17.2526	5.74299e-10
39.8089	78277.6	25221.2	82240.4	-17.859	60.3367	-0.0148935	1.93572e-06	0.158517	0.0149085	1	14	0.118031	1.4352e-06	4.27609e-06	0.0000000E+000	-100.088	1.15736e-05	3.72902e-06	1.21595e-05	17.859	-9.05117e-10
35.4653	79593.6	26653.1	83937.6	-18.5139	61.0871	-0.0148926	2.47165e-06	0.168372	0.0169766	1	14	0.118027	1.40613e-06	4.27801e-06	0.0000000E+000	-100.072	1.1297e-05	3.78298e-06	1.19136e-05	18.5139	1.91728e-09
31.6296	80928.1	28171.8	85691.3	-19.1935	61.8114	-0.0148955	1.67222e-06	0.178613	0.0193049	1	14	0.118022	1.3773e-06	4.27982e-06	0.0000000E+000	-100.08	1.10211e-05	3.83655e-06	1.16698e-05	19.1935	1.80493e-09
28.1701	82399.8	29829.9	87633.1	-19.901	62.6168	-0.0148894	1.72033e-06	0.1894	0.0219456	1	14	0.118018	1.34673e-06	4.2805e-06	0.0000000E+000	-100.112	1.07298e-05	3.88433e-06	1.14112e-05	19.901	6.82205e-10
25.1044	83974	31620.7	89730.2	-20.634	63.3729	-0.0148936	2.63146e-06	0.200492	0.024898	1	14	0.118021	1.31529e-06	4.2806e-06	0.0000000E+000	-100.064	1.04296e-05	3.92731e-06	1.11445e-05	20.634	9.93223e-11
22.3854	85656.8	33510.8	91978.6	-21.3665	64.0594	-0.0148924	2.08731e-06	0.212164	0.0281622	1	14	0.118017	1.2831e-06	4.28016e-06	0.0000000E+000	-100.08	1.01248e-05	3.96106e-06	1.08721e-05	21.3665	-4.3565e-10
19.9553	87424.3	35561.5	94380.2	-22.135	64.8212	-0.0148859	2.19118e-06	0.224275	0.0318405	1	14	0.118015	1.25042e-06	4.27857e-06	0.0000000E+000	-100.096	9.81454e-06	3.99225e-06	1.05954e-05	22.135	-1.59296e-09
17.7961	89320.6	37742.1	96967.2	-22.9063	65.6655	-0.0148915	2.36078e-06	0.236956	0.0358981	1	14	0.118015	1.21706e-06	4.27891e-06	0.0000000E+000	-100.048	9.49953e-06	4.014e-06	1.03128e-05	22.9063	3.4221e-10
15.8576	91360.4	40093.5	99770.8	-23.6943	66.3879	-0.0148927	2.01122e-06	0.250328	0.040425	1	14	0.118011	1.18282e-06	4.28497e-06	0.0000000E+000	-100.088	9.17806e-06	4.02779e-06	1.0023e-05	23.6943	6.06077e-09
14.119	93502.7	42589.5	102745	-24.4888	67.1903	-0.0148875	2.26465e-06	0.264676	0.0454773	1	14	0.11801	1.14857e-06	4.28273e-06	0.0000000E+000	-100.096	8.85726e-06	4.03439e-06	9.7328e-06	24.4888	-2.24464e-09
12.6008	95707.6	45289.3	105882	-25.3237	68.0809	-0.014892	1.21739e-06	0.278886	0.0510235	1	14	0.118007	1.11451e-06	4.28003e-06	0.0000000E+000	-100.056	8.53689e-06	4.03969e-06	9.44445e-06	25.3237	-2.69391e-09
11.2249	98099.8	48117.1	109265	-26.1275	68.7649	-0.0148967	2.04777e-06	0.294673	0.0571448	1	14	0.118008	1.08002e-06	4.28631e-06	0.0000000E+000	-100.112	8.21687e-06	4.0303e-06	9.15207e-06	26.1275	6.2709e-09
10.0032	100596	51259.3	112903	-27.0014	69.5257	-0.0148912	2.39183e-06	0.31039	0.0639799	1	14	0.118003	1.04518e-06	4.28623e-06	0.0000000E+000	-100.088	7.89169e-06	4.02126e-06	8.85716e-06	27.0014	-7.06083e-11
8.91838	103235	54567.6	116769	-27.86	70.37	-0.0148868	2.3521e-06	0.327039	0.071419	1	14	0.118005	1.01058e-06	4.28355e-06	0.0000000E+000	-100.04	7.57129e-06	4.00202e-06	8.56391e-06	27.86	-2.68229e-09
7.93953	106008	58162.5	120916	-28.7518	71.3087	-0.0148873	2.21075e-06	0.344653	0.0797446	1	14	0.118003	9.75908e-07	4.28693e-06	0.0000000E+000	-100.064	7.25059e-06	3.9781e-06	8.27021e-06	28.7518	3.37903e-09
7.07654	108944	62010.3	125356	-29.6482	71.867	-0.0149006	2.15686e-06	0.36269	0.0887506	1	14	0.118002	9.41335e-07	4.28607e-06	0.0000000E+000	-100.072	6.93288e-06	3.94614e-06	7.97727e-06	29.6482	-8.59872e-10
6.31058	112054	66038.5	130066	-30.5128	72.4872	-0.0148897	9.2051e-07	0.381903	0.098451	1	14	0.117996	9.07201e-07	4.2821e-06	0.0000000E+000	-100.04	6.62368e-06	3.90364e-06	7.6884e-06	30.5128	-3.9731e-09
5.6205	115400	70469.8	135215	-31.4106	73.1737	-0.0149007	-2.01903e-07	0.40183	0.109143	1	14	0.118002	8.72697e-07	4.27875e-06	0.0000000E+000	-100.072	6.31183e-06	3.85437e-06	7.39563e-06	31.4106	-3.34445e-09
5.01444	118640	75176.6	140453	-32.3604	73.9312	-0.0148992	-5.21615e-08	0.422197	0.120953	1	14	0.118006	8.4018e-07	4.28248e-06	0.0000000E+000	-100.056	6.01409e-06	3.81083e-06	7.11981e-06	32.3604	3.73005e-09
4.46939	122204	80511.4	146342	-33.3779	74.7725	-0.0148983	2.94585e-06	0.442297	0.133872	1	14	0.117997	8.0631e-07	4.29378e-06	0.0000000E+000	-100.008	5.70622e-06	3.75941e-06	6.83331e-06	33.3779	1.12966e-08
3.97785	126016	86021.5	152577	-34.3185	75.7092	-0.0148934	3.26323e-06	0.465119	0.147844	1	14	0.117999	7.73375e-07	4.29185e-06	0.0000000E+000	-100.08	5.41313e-06	3.69514e-06	6.55408e-06	34.3185	-1.93549e-09
3.55114	129954	92190.2	159333	-35.3522	76.7504	-0.0148856	2.01168e-06	0.486147	0.162752	1	14	0.117996	7.40564e-07	4.27895e-06	0.0000000E+000	-100.08	5.11891e-06	3.6314e-06	6.27616e-06	35.3522	-1.28927e-08
3.1604	134155	98752.9	166583	-36.3571	77.9132	-0.0148901	1.65709e-06	0.509952	0.179213	1	14	0.118	7.08356e-07	4.29075e-06	0.0000000E+000	-100.064	4.83446e-06	3.55869e-06	6.00302e-06	36.3571	1.17943e-08
2.81836	138626	105942	174473	-37.3881	79.2087	-0.0148853	2.3878e-06	0.533035	0.196533	1	14	0.117998	6.76313e-07	4.29712e-06	0.0000000E+000	-100.048	4.55395e-06	3.48026e-06	5.73155e-06	37.3881	6.37411e-09
2.51367	143072	113684	182739	-38.4705	80.6527	-0.0148812	2.42832e-06	0.556943	0.21555	1	14	0.117997	6.45715e-07	4.27898e-06	0.0000000E+000	-100.048	4.2844e-06	3.40437e-06	5.47228e-06	38.4705	-1.814e-08
2.23982	147999	122035	191823	-39.5079	82.2674	-0.0148804	2.56752e-06	0.582267	0.235662	1	14	0.118	6.1515e-07	4.29981e-06	0.0000000E+000	-100.072	4.02213e-06	3.31652e-06	5.21314e-06	39.5079	2.08269e-08
1.99706	153160	131098	201605	-40.562	84.0706	-0.014881	2.03205e-06	0.607902	0.257053	1	14	0.118001	5.85306e-07	4.29203e-06	0.0000000E+000	-100.032	3.76827e-06	3.22547e-06	4.9602e-06	40.562	-7.77395e-09
1.77961	158621	141203	212365	-41.6752	86.0899	-0.0148758	2.76117e-06	0.63336	0.280009	1	14	0.117999	5.55643e-07	4.28679e-06	0.0000000E+000	-100.072	3.51718e-06	3.13096e-06	4.70887e-06	41.6752	-5.24748e-09
1.58469	164235	152197	223913	-42.8213	88.349	-0.0148807	2.30754e-06	0.659889	0.304876	1	14	0.117999	5.26987e-07	4.30864e-06	0.0000000E+000	-100.088	3.27572e-06	3.03561e-06	4.46601e-06	42.8213	2.18565e-08
1.41224	170410	164030	236528	-43.9072	90.8782	-0.0148727	2.18772e-06	0.687051	0.330424	1	14	0.117998	4.98876e-07	4.28137e-06	0.0000000E+000	-100.056	3.046e-06	2.93197e-06	4.22784e-06	43.9072	-2.72759e-08
1.25967	176499	176751	249785	-45.0409	93.707	-0.0148751	2.45278e-06	0.714825	0.357923	1	14	0.117998	4.72399e-07	4.31412e-06	0.0000000E+000	-100.112	2.82883e-06	2.83288e-06	4.00344e-06	45.0409	3.27566e-08
1.12249	183253	191003	264695	-46.1863	96.875	-0.0148714	2.82952e-06	0.742335	0.386533	1	14	0.117999	4.45794e-07	4.28942e-06	0.0000000E+000	-100.104	2.61552e-06	2.72614e-06	3.77793e-06	46.1863	-2.47043e-08
1.00006	190268	206537	280820	-47.3478	100.424	-0.0148726	2.69738e-06	0.770538	0.416808	1	14	0.117999	4.20195e-07	4.3114e-06	0.0000000E+000	-100.08	2.41275e-06	2.61905e-06	3.561e-06	47.3478	2.19793e-08