File: data/DE_40_7_60.mpt
EC-Lab ASCII FILE
Nb header lines : 75

Potentio Electrochemical Impedance Spectroscopy

Run on channel : 3 (SN 20921)
User :
CE vs. WE compliance from -10 V to 10 V
Electrode connection : standard
Ewe ctrl range : min = -10.00 V, max = 10.00 V
Safety Limits :
	Do not start on E overload
Acquisition started on : 01/24/2020 09:52:07
Technique started on : 01/24/2020 09:52:08
Saved on :
	File : DE_40_7_60.mpr
	Directory : P:\Chemistry\Data\VMP3\Kyler\DOE\DE_40\2ND 60C\
	Host : 10.0.4.99
Device : VMP3 (SN 0183)
Address : USB
EC-Lab for windows v11.33 (software)
Internet server v11.32 (firmware)
Command interpretor v11.33 (firmware)
Electrode material :
Initial state :
Electrolyte :
Comments :
Electrode surface area : 0.001 cm²
Characteristic mass : 0.001 g
Equivalent Weight : 0.000 g/eq.
Density : 0.000 g/cm3
Record Analogic IN 1
Cycle Definition : Charge/Discharge alternance
External device configuration :
   device type : Thermostat
   device name : Other
   Analog OUT :
      mode : E/V
      unit : T/°C
      max : 400.000 at 5.000 V
      min : -100.000 at 0.000 V
      current : 0.000
   Analog IN 1 :
      unit : T/°C
      max : 400.000 at 5.000 V
      min : -100.000 at 0.000 V
Mode                Single sine
E (V)               0.0000
vs.                 Eoc
tE (h:m:s)          0:00:0.0000
record              0
dI                  1.000
unit dI             mA
dt (s)              0.000
fi                  1.000
unit fi             MHz
ff                  1.000
unit ff             Hz
Nd                  20
Points              per decade
spacing             Logarithmic
Va (mV)             128.0
pw                  0.50
Na                  3
corr                0
E range min (V)     -10.000
E range max (V)     10.000
I Range             Auto
Bandwidth           5
nc cycles           0
goto Ns'            0
nr cycles           0
inc. cycle          1

freq/Hz	Re(Z)/Ohm	-Im(Z)/Ohm	|Z|/Ohm	Phase(Z)/deg	time/s	<Ewe>/V	<I>/mA	Cs/µF	Cp/µF	cycle number	I Range	|Ewe|/V	|I|/A	(Q-Qo)/mA.h	Analog OUT/V	Analog IN 1/V	Re(Y)/Ohm-1	Im(Y)/Ohm-1	|Y|/Ohm-1	Phase(Y)/deg	dq/mA.h
1.00002e+06	5.58862	-21.5439	22.257	75.4576	1.8456	0.00933124	0.261732	-0.00738734	-0.00692157	1	9	2.1369e-05	9.60104e-07	2.75934e-05	0.0000000E+000	-100.088	0.0112817	-0.0434903	0.0449298	-75.4576	2.75934e-05
891247	49.9796	10.0233	50.9747	-11.3401	3.02247	0.00968836	0.00203157	0.0178161	0.000688846	1	11	0.000313103	6.14231e-06	5.34417e-05	0.0000000E+000	-100.096	0.0192346	0.00385745	0.0196176	11.3401	2.58483e-05
794333	50.685	9.01966	51.4813	-10.0905	3.61847	0.0100182	0.00190464	0.022214	0.000681881	1	11	0.000914215	1.77582e-05	5.39107e-05	0.0000000E+000	-100.112	0.0191241	0.00340323	0.0194245	10.0905	4.69052e-07
707950	52.2257	8.0115	52.8366	-8.72127	4.21449	0.0103356	0.00207574	0.0280611	0.000645151	1	11	0.00189922	3.59452e-05	5.42086e-05	0.0000000E+000	-100.128	0.0187074	0.00286975	0.0189263	8.72127	2.97826e-07
630957	53.4482	7.30632	53.9452	-7.78404	4.81048	0.0105804	0.00190072	0.0345241	0.000633305	1	11	0.00334169	6.19459e-05	5.45459e-05	0.0000000E+000	-100.104	0.0183665	0.00251069	0.0185373	7.78404	3.37288e-07
562342	54.5474	6.85448	54.9764	-7.1623	5.40649	0.0107965	0.00205897	0.04129	0.000641862	1	11	0.00529335	9.62841e-05	5.4896e-05	0.0000000E+000	-100.04	0.0180477	0.00226789	0.0181896	7.1623	3.50153e-07
501206	55.5027	6.36742	55.8668	-6.54452	6.00249	0.0109675	0.00215086	0.0498701	0.000647829	1	11	0.00777582	0.000139185	5.53661e-05	0.0000000E+000	-100.104	0.0177831	0.00204012	0.0178997	6.54452	4.70114e-07
446686	56.2527	6.00333	56.5722	-6.09159	6.59849	0.0110794	0.00187277	0.0593507	0.000668351	1	11	0.0108149	0.00019117	5.54329e-05	0.0000000E+000	-100.104	0.0175767	0.0018758	0.0176765	6.09159	6.67534e-08
398103	56.89	5.6408	57.1689	-5.66253	7.19449	0.0111018	0.0018765	0.0708734	0.000689994	1	11	0.0144527	0.000252807	5.53669e-05	0.0000000E+000	-100.072	0.0174067	0.00172592	0.017492	5.66253	-6.60169e-08
354810	57.3907	5.28139	57.6332	-5.25785	7.79049	0.0111244	0.00191154	0.0849329	0.000713228	1	11	0.0186998	0.000324463	5.65804e-05	0.0000000E+000	-100.112	0.0172781	0.00159002	0.0173511	5.25785	1.21359e-06
316230	57.7697	4.94174	57.9807	-4.8893	8.38549	0.0111067	0.00194789	0.101844	0.000739827	1	11	0.0235797	0.000406683	5.67961e-05	0.0000000E+000	-100.096	0.0171844	0.00146999	0.0172471	4.8893	2.1562e-07
281835	58.0945	4.6122	58.2773	-4.53927	8.98149	0.0111022	0.0018286	0.122439	0.000766894	1	11	0.0291898	0.000500878	5.60565e-05	0.0000000E+000	-100.08	0.0171055	0.00135803	0.0171594	4.53927	-7.39589e-07
251188	58.3291	4.33024	58.4897	-4.24574	9.57748	0.0111094	0.00181407	0.146322	0.000802003	1	11	0.0355146	0.000607195	5.67231e-05	0.0000000E+000	-100.12	0.0170501	0.00126577	0.017097	4.24574	6.66668e-07
223872	58.5037	4.07533	58.6455	-3.98475	10.1725	0.0111252	0.00186515	0.174445	0.000842394	1	11	0.0426263	0.000726848	5.74302e-05	0.0000000E+000	-100.096	0.0170104	0.00118493	0.0170516	3.98475	7.07008e-07
199544	58.648	3.84763	58.7741	-3.75354	10.7695	0.0111423	0.00206906	0.207295	0.000888392	1	11	0.0504835	0.000858941	5.87719e-05	0.0000000E+000	-100.096	0.0169778	0.00111384	0.0170143	3.75354	1.34175e-06
177832	58.7606	3.67522	58.8754	-3.57894	11.3655	0.0111615	0.00210876	0.243516	0.000948911	1	11	0.0590323	0.00100266	5.91698e-05	0.0000000E+000	-100.104	0.0169519	0.00106027	0.016985	3.57894	3.97867e-07
158486	58.8389	3.53116	58.9448	-3.43443	11.9615	0.0111779	0.00222991	0.284388	0.0010206	1	11	0.0682276	0.00115748	5.79739e-05	0.0000000E+000	-100.032	0.0169346	0.00101631	0.016965	3.43443	-1.19588e-06
141256	58.9005	3.43517	59.0006	-3.3378	12.5575	0.0111587	0.00188846	0.327994	0.00111186	1	11	0.0780601	0.00132304	5.67774e-05	0.0000000E+000	-100.072	0.0169202	0.000986813	0.016949	3.3378	-1.1965e-06
125909	58.9501	3.37753	59.0467	-3.27916	13.1545	0.011159	0.00184616	0.374251	0.00122453	1	11	0.0886188	0.00150082	5.89285e-05	0.0000000E+000	-100.12	0.016908	0.00096874	0.0169357	3.27916	2.15109e-06
112205	58.9854	3.36026	59.0811	-3.26048	13.7505	0.0112267	0.00274511	0.422119	0.00136548	1	11	0.100013	0.00169281	5.99084e-05	0.0000000E+000	-100.136	0.0168985	0.000962668	0.0169259	3.26048	9.79949e-07
100004	59.0209	3.37926	59.1175	-3.27691	14.3455	0.0111606	0.00175726	0.470958	0.00153884	1	11	0.112418	0.0019016	6.12311e-05	0.0000000E+000	-100.064	0.0168878	0.000966916	0.0169155	3.27691	1.32264e-06
89129.3	59.0555	3.43539	59.1553	-3.32928	14.8045	0.0111788	0.00184989	0.519784	0.00175303	1	11	0.125881	0.00212797	5.96361e-05	0.0000000E+000	-100.112	0.0168761	0.000981723	0.0169047	3.32928	-1.59493e-06
79433.3	59.0874	3.53299	59.1929	-3.42179	15.2635	0.0112001	0.0021017	0.56712	0.00202032	1	11	0.140594	0.00237519	6.15787e-05	0.0000000E+000	-100.112	0.0168638	0.00100833	0.0168939	3.42179	1.94258e-06
70795	59.1073	3.67135	59.2212	-3.55427	15.8595	0.0112487	0.00171234	0.612338	0.00235337	1	11	0.130719	0.00220731	6.08436e-05	0.0000000E+000	-100.072	0.0168534	0.00104682	0.0168858	3.55427	-7.35091e-07
63093.8	59.1273	3.85551	59.2528	-3.7308	16.4565	0.0113003	0.00220198	0.654261	0.00277011	1	11	0.129734	0.00218949	5.81321e-05	0.0000000E+000	-100.064	0.0168411	0.00109815	0.0168768	3.7308	-2.71157e-06
56237	59.1399	4.08509	59.2808	-3.95144	17.0535	0.0113351	0.00218968	0.692781	0.00328982	1	11	0.129532	0.00218506	5.5558e-05	0.0000000E+000	-100.08	0.0168288	0.00116245	0.0168689	3.95144	-2.5741e-06
50122.5	59.1588	4.35989	59.3192	-4.21497	17.6485	0.0113604	0.00222733	0.728303	0.00393434	1	11	0.129568	0.00218425	5.84822e-05	0.0000000E+000	-100.088	0.0168123	0.00123904	0.0168579	4.21497	2.92421e-06
44666.7	59.1782	4.6906	59.3638	-4.53192	18.2435	0.0113739	0.00203759	0.759639	0.00474264	1	11	0.129431	0.00218029	5.67229e-05	0.0000000E+000	-100.072	0.0167926	0.00133102	0.0168453	4.53192	-1.75927e-06
39814.1	59.1959	5.073	59.4129	-4.8982	18.8395	0.0114147	0.00257438	0.787986	0.00574496	1	11	0.129404	0.00217804	5.88065e-05	0.0000000E+000	-100.112	0.0167699	0.00143716	0.0168314	4.8982	2.08363e-06
35481	59.2219	5.52119	59.4787	-5.32623	19.4345	0.0114019	0.00191215	0.81244	0.00700059	1	11	0.129356	0.00217483	5.44886e-05	0.0000000E+000	-100.112	0.0167402	0.00156067	0.0168127	5.32623	-4.3179e-06
31621.1	59.2606	6.03257	59.5669	-5.81253	19.8935	0.0113996	0.00202734	0.834335	0.00855726	1	11	0.140676	0.00236165	5.55176e-05	0.0000000E+000	-100.064	0.0167015	0.00170017	0.0167878	5.81253	1.029e-06
28188.1	59.2942	6.6136	59.6619	-6.3644	20.4895	0.0114286	0.00216861	0.853722	0.0104906	1	11	0.130417	0.00218593	5.56713e-05	0.0000000E+000	-100.024	0.0166578	0.00185799	0.0167611	6.3644	1.53666e-07
25116.9	59.3429	7.27475	59.7872	-6.98892	20.9495	0.0114448	0.00227579	0.871036	0.012896	1	11	0.140312	0.00234685	5.42981e-05	0.0000000E+000	-100.096	0.0166017	0.00203517	0.016726	6.98892	-1.37321e-06
22389	59.3954	8.02289	59.9348	-7.69272	21.5445	0.0114508	0.00217141	0.886042	0.0158766	1	11	0.130186	0.00217213	5.17629e-05	0.0000000E+000	-100.072	0.0165346	0.00223343	0.0166848	7.69272	-2.53519e-06
19948.8	59.4632	8.86758	60.1208	-8.48185	22.0045	0.0114552	0.00212426	0.899702	0.0195731	1	11	0.1383	0.00230036	5.36976e-05	0.0000000E+000	-100.104	0.0164513	0.00245333	0.0166332	8.48185	1.93475e-06
17786.9	59.5384	9.81239	60.3416	-9.35866	22.6005	0.0114758	0.00216619	0.911896	0.0241136	1	11	0.129822	0.00215145	5.13258e-05	0.0000000E+000	-100.088	0.0163517	0.00269489	0.0165723	9.35866	-2.37186e-06
15847.7	59.6328	10.8749	60.6163	-10.3351	23.0595	0.0114571	0.00197738	0.923485	0.0297235	1	11	0.136092	0.00224515	4.99283e-05	0.0000000E+000	-100.064	0.0162296	0.00295969	0.0164972	10.3351	-1.39748e-06
14121.9	59.736	12.0684	60.9429	-11.4217	23.6545	0.011476	0.00204113	0.93385	0.0366211	1	11	0.129382	0.002123	4.94945e-05	0.0000000E+000	-100.08	0.0160838	0.00324941	0.0164088	11.4217	-4.33811e-07
12590.9	59.8687	13.3917	61.3482	-12.6086	24.1145	0.0114676	0.00201634	0.943901	0.0449775	1	11	0.133894	0.00218253	5.16799e-05	0.0000000E+000	-100.104	0.0159073	0.00355822	0.0163004	12.6086	2.18543e-06
11217.7	60.0208	14.8822	61.8383	-13.9257	24.5735	0.0114743	0.00212407	0.953344	0.0552163	1	11	0.137782	0.0022281	5.08106e-05	0.0000000E+000	-100.144	0.0156959	0.00389181	0.0161712	13.9257	-8.69281e-07
10002.2	60.1913	16.5316	62.4202	-15.3577	25.1685	0.0114767	0.00208828	0.962516	0.0675131	1	11	0.129294	0.00207134	5.37317e-05	0.0000000E+000	-100.104	0.0154484	0.00424292	0.0160204	15.3577	2.9211e-06
8914.93	60.3978	18.3737	63.1307	-16.9203	25.6509	0.0114883	0.00221074	0.971642	0.0823031	1	11	0.131721	0.00208648	5.26675e-05	0.0000000E+000	-100.064	0.0151544	0.00461014	0.0158401	16.9203	-1.06423e-06
7944	60.6331	20.4307	63.9827	-18.6216	26.177	0.0114994	0.00231269	0.980612	0.0999861	1	11	0.133638	0.00208866	5.50002e-05	0.0000000E+000	-100.08	0.014811	0.00499067	0.0156292	18.6216	2.33268e-06
7082.23	60.9054	22.705	64.9999	-20.445	26.7539	0.0115076	0.00247112	0.989758	0.120766	1	11	0.135098	0.00207844	5.55863e-05	0.0000000E+000	-100.064	0.0144155	0.00537397	0.0153846	20.445	5.86107e-07
6307.73	61.2148	25.2516	66.2186	-22.4166	27.3886	0.0115142	0.00228902	0.99921	0.145304	1	11	0.136162	0.00205625	5.49526e-05	0.0000000E+000	-100.096	0.0139604	0.00575877	0.0151015	22.4166	-6.33722e-07
5621.06	61.569	28.0694	67.6656	-24.5083	28.0892	0.0115161	0.00238836	1.00872	0.17358	1	11	0.136876	0.00202283	5.61103e-05	0.0000000E+000	-100.072	0.013447	0.00613052	0.0147786	24.5083	1.15773e-06
5011.6	61.967	31.18	69.3693	-26.7102	28.8497	0.0115283	0.00247783	1.01852	0.205771	1	11	0.137294	0.00197918	5.80633e-05	0.0000000E+000	-100.08	0.0128773	0.00647949	0.0144156	26.7102	1.95299e-06
4466.43	62.4198	34.6339	71.3844	-29.0239	29.6097	0.0115126	0.00232276	1.02887	0.242189	1	11	0.137469	0.00192576	6.01264e-05	0.0000000E+000	-100.104	0.0122494	0.00679664	0.0140087	29.0239	2.06315e-06
3981.27	62.9321	38.4594	73.7535	-31.4301	30.3697	0.0115274	0.00245341	1.03943	0.282641	1	11	0.137457	0.00186373	6.08922e-05	0.0000000E+000	-100.072	0.0115693	0.00707028	0.0135587	31.4301	7.65773e-07
3546.6	63.5081	42.7207	76.5398	-33.928	31.1299	0.0115178	0.00234326	1.05044	0.327245	1	11	0.137289	0.00179369	6.22987e-05	0.0000000E+000	-100.072	0.0108406	0.00729229	0.0130651	33.928	1.40655e-06
3161.01	64.1527	47.4207	79.7765	-36.4713	31.8897	0.0115216	0.0024275	1.06176	0.375156	1	11	0.137012	0.00171745	6.32459e-05	0.0000000E+000	-100.088	0.0100801	0.00745106	0.012535	36.4713	9.47157e-07
2817.3	64.8641	52.6294	83.5296	-39.0552	32.65	0.0115282	0.00241222	1.0734	0.426123	1	11	0.136658	0.00163604	6.32397e-05	0.0000000E+000	-100.08	0.00929658	0.00754305	0.0119718	39.0552	-6.20122e-09
2510.8	65.6484	58.3958	87.8623	-41.6539	33.4097	0.0115343	0.00257288	1.08549	0.479495	1	11	0.136248	0.00155069	6.25532e-05	0.0000000E+000	-100.04	0.00850392	0.00756444	0.0113814	41.6539	-6.865e-07
2237.85	66.5135	64.7788	92.8458	-44.243	34.1699	0.011525	0.00239096	1.09788	0.534438	1	11	0.135826	0.00146292	6.29643e-05	0.0000000E+000	-100.088	0.00771588	0.00751465	0.0107706	44.243	4.11096e-07
1995.64	67.4504	71.8223	98.5291	-46.798	34.9297	0.0115191	0.00221501	1.1104	0.590022	1	11	0.135398	0.0013742	6.33763e-05	0.0000000E+000	-100.048	0.00694792	0.00739826	0.0101493	46.798	4.11989e-07
1778.29	68.4674	79.6882	105.062	-49.3311	35.6899	0.0115169	0.00235182	1.12311	0.646131	1	11	0.134985	0.00128481	6.49255e-05	0.0000000E+000	-100.048	0.00620289	0.00721945	0.00951821	49.3311	1.54926e-06
1585.51	69.5667	88.3652	112.463	-51.7879	36.4497	0.0115206	0.00240773	1.13598	0.701316	1	11	0.134593	0.00119678	6.5015e-05	0.0000000E+000	-100.096	0.00550024	0.00698654	0.00889181	51.7879	8.94604e-08
1411.84	70.7545	98.1187	120.969	-54.2042	37.2102	0.011522	0.00237492	1.1489	0.755857	1	11	0.134226	0.00110959	6.50408e-05	0.0000000E+000	-100.04	0.00483511	0.00670508	0.00826659	54.2042	2.58164e-08
1258.79	72.0093	108.841	130.505	-56.5113	37.97	0.0115223	0.00234211	1.16165	0.807981	1	11	0.133902	0.00102603	6.62816e-05	0.0000000E+000	-100.04	0.00422797	0.0063905	0.00766252	56.5113	1.24079e-06
1121.79	73.3621	120.82	141.349	-58.7337	38.7284	0.0115161	0.00237231	1.17427	0.85795	1	11	0.133611	0.000945256	6.61349e-05	0.0000000E+000	-100.072	0.00367189	0.00604721	0.00707471	58.7337	-1.46735e-07
1000.32	74.7929	134.071	153.522	-60.8445	39.4877	0.0115177	0.00220493	1.18672	0.905056	1	11	0.133351	0.000868614	6.62225e-05	0.0000000E+000	-100.08	0.00317337	0.00568845	0.00651373	60.8445	8.76521e-08
891.427	76.3251	148.925	167.345	-62.8645	40.2464	0.0115255	0.00233932	1.19885	0.949465	1	11	0.13313	0.000795541	6.64432e-05	0.0000000E+000	-100.056	0.00272549	0.00531795	0.00597569	62.8645	2.20658e-07
794.238	77.9646	165.52	182.963	-64.7782	41.0059	0.0115158	0.00231508	1.21065	0.990821	1	11	0.13294	0.000726599	6.69175e-05	0.0000000E+000	-100.08	0.00232902	0.00494454	0.0054656	64.7782	4.74362e-07
707.509	79.7327	184.099	200.623	-66.5827	41.7685	0.0115276	0.00243418	1.2219	1.02891	1	11	0.13279	0.000661889	6.74868e-05	0.0000000E+000	-100.096	0.00198095	0.00457392	0.00498447	66.5827	5.69248e-07
631.01	81.5765	204.543	220.21	-68.2567	42.5264	0.0115228	0.00239839	1.2331	1.06388	1	11	0.132643	0.000602347	6.8103e-05	0.0000000E+000	-100.088	0.00168225	0.00421803	0.00454112	68.2567	6.16166e-07
562.339	83.5933	227.558	242.426	-69.8292	43.2829	0.0115232	0.0023777	1.24374	1.09586	1	11	0.132528	0.000546672	6.90741e-05	0.0000000E+000	-100.064	0.00142237	0.00387198	0.00412497	69.8292	9.7117e-07
501.444	85.7837	253.118	267.259	-71.278	44.0402	0.0115247	0.00234844	1.25394	1.12475	1	11	0.132435	0.000495531	6.92494e-05	0.0000000E+000	-100.096	0.00120099	0.00354371	0.00374169	71.278	1.75227e-07
446.859	88.1248	281.873	295.327	-72.6386	45.0469	0.0115193	0.000172902	1.26356	1.15105	1	12	0.135523	0.000458892	6.95777e-05	0.0000000E+000	-100.04	0.00101039	0.00323181	0.00338607	72.6386	3.28339e-07
398.089	90.7232	314.047	326.888	-73.8868	45.8097	0.0115138	0.00017305	1.27305	1.17499	1	12	0.134845	0.00041251	6.98449e-05	0.0000000E+000	-100.088	0.000849023	0.00293897	0.00305915	73.8868	2.67197e-07
354.66	93.5518	350.022	362.308	-75.0361	46.5699	0.01152	0.000157463	1.28208	1.1966	1	12	0.134302	0.000370684	6.97572e-05	0.0000000E+000	-100.112	0.000712683	0.00266648	0.00276008	75.0361	-8.76586e-08
316.316	96.665	389.805	401.611	-76.0726	47.3269	0.0115152	0.000153883	1.29078	1.216	1	12	0.133858	0.000333303	6.99865e-05	0.0000000E+000	-100.056	0.000599318	0.00241677	0.00248997	76.0726	2.29251e-07
281.894	100.14	434.533	445.922	-77.0225	48.0824	0.0115191	0.000169823	1.29931	1.23378	1	12	0.133499	0.000299376	6.97744e-05	0.0000000E+000	-100.072	0.000503606	0.00218526	0.00224254	77.0225	-2.12046e-07
251.044	103.995	484.814	495.842	-77.8932	48.8389	0.0115178	0.000164135	1.30766	1.25014	1	12	0.133206	0.000268645	6.96361e-05	0.0000000E+000	-100.096	0.000422985	0.00197191	0.00201677	77.8932	-1.38361e-07
223.925	108.304	540.217	550.967	-78.6635	49.6017	0.011519	0.000155221	1.31568	1.26484	1	12	0.132976	0.00024135	6.9558e-05	0.0000000E+000	-100.096	0.000356776	0.00177958	0.00181499	78.6635	-7.80859e-08
199.553	113.044	602.554	613.066	-79.3744	50.3632	0.0115178	0.000175637	1.32363	1.27862	1	12	0.132784	0.00021659	6.9827e-05	0.0000000E+000	-100.096	0.000300767	0.00160318	0.00163114	79.3744	2.69028e-07
177.781	118.431	672.315	682.666	-80.0096	51.1312	0.0115174	0.000182218	1.33156	1.29149	1	12	0.132632	0.000194286	7.00675e-05	0.0000000E+000	-100.048	0.000254126	0.00144263	0.00146484	80.0096	2.40488e-07
158.428	124.502	750.091	760.353	-80.5758	51.8977	0.0115191	0.000158707	1.33929	1.30338	1	12	0.132506	0.00017427	6.99666e-05	0.0000000E+000	-100.064	0.000215351	0.00129743	0.00131518	80.5758	-1.00873e-07
141.311	131.249	836.282	846.518	-81.0805	52.6509	0.0115174	0.000167134	1.34676	1.31439	1	12	0.132412	0.00015642	7.01285e-05	0.0000000E+000	-100.072	0.000183157	0.00116702	0.00118131	81.0805	1.61912e-07
125.846	139.08	933.572	943.875	-81.5266	53.4064	0.0115219	0.000158091	1.35467	1.32526	1	12	0.132332	0.000140201	7.00695e-05	0.0000000E+000	-100.064	0.000156112	0.0010479	0.00105946	81.5266	-5.90171e-08
112.19	147.545	1041.34	1051.74	-81.9356	54.1519	0.0115138	0.000165678	1.3623	1.33549	1	12	0.132272	0.000125765	7.00253e-05	0.0000000E+000	-100.08	0.000133385	0.000941402	0.000950805	81.9356	-4.4236e-08
100.032	157.284	1161.37	1171.97	-82.2874	54.9117	0.0115122	0.000166908	1.36997	1.34529	1	12	0.132219	0.000112818	7.01153e-05	0.0000000E+000	-100.072	0.000114511	0.000845542	0.000853261	82.2874	9.00493e-08
89.116	168.44	1296.27	1307.17	-82.5964	55.6788	0.0115233	0.00016193	1.37774	1.35487	1	12	0.132183	0.000101121	7.0239e-05	0.0000000E+000	-100.08	9.8578e-05	0.000758633	0.00076501	82.5964	1.2364e-07
79.4155	181.086	1446.4	1457.69	-82.8638	56.4422	0.0115165	0.000151844	1.38556	1.36418	1	12	0.132151	9.06578e-05	7.02017e-05	0.0000000E+000	-100.08	8.52227e-05	0.000680703	0.000686017	82.8638	-3.72515e-08