File: data/DE_40_13_60.mpt
EC-Lab ASCII FILE
Nb header lines : 75

Potentio Electrochemical Impedance Spectroscopy

Run on channel : 1 (SN 20909)
User :
CE vs. WE compliance from -10 V to 10 V
Electrode connection : standard
Ewe ctrl range : min = -10.00 V, max = 10.00 V
Safety Limits :
	Do not start on E overload
Acquisition started on : 01/24/2020 09:56:07
Technique started on : 01/24/2020 09:56:08
Saved on :
	File : DE_40_13_60.mpr
	Directory : P:\Chemistry\Data\VMP3\Kyler\DOE\DE_40\2ND 60C\
	Host : 10.0.4.99
Device : VMP3 (SN 0183)
Address : USB
EC-Lab for windows v11.33 (software)
Internet server v11.32 (firmware)
Command interpretor v11.33 (firmware)
Electrode material :
Initial state :
Electrolyte :
Comments :
Electrode surface area : 0.001 cm²
Characteristic mass : 0.001 g
Equivalent Weight : 0.000 g/eq.
Density : 0.000 g/cm3
Record Analogic IN 1
Cycle Definition : Charge/Discharge alternance
External device configuration :
   device type : Thermostat
   device name : Other
   Analog OUT :
      mode : E/V
      unit : T/°C
      max : 400.000 at 5.000 V
      min : -100.000 at 0.000 V
      current : 0.000
   Analog IN 1 :
      unit : T/°C
      max : 400.000 at 5.000 V
      min : -100.000 at 0.000 V
Mode                Single sine
E (V)               0.0000
vs.                 Eoc
tE (h:m:s)          0:00:0.0000
record              0
dI                  1.000
unit dI             mA
dt (s)              0.000
fi                  1.000
unit fi             MHz
ff                  1.000
unit ff             Hz
Nd                  20
Points              per decade
spacing             Logarithmic
Va (mV)             128.0
pw                  0.50
Na                  3
corr                0
E range min (V)     -10.000
E range max (V)     10.000
I Range             Auto
Bandwidth           5
nc cycles           0
goto Ns'            0
nr cycles           0
inc. cycle          1

freq/Hz	Re(Z)/Ohm	-Im(Z)/Ohm	|Z|/Ohm	Phase(Z)/deg	time/s	<Ewe>/V	<I>/mA	Cs/µF	Cp/µF	cycle number	I Range	|Ewe|/V	|I|/A	(Q-Qo)/mA.h	Analog OUT/V	Analog IN 1/V	Re(Y)/Ohm-1	Im(Y)/Ohm-1	|Y|/Ohm-1	Phase(Y)/deg	dq/mA.h
1.00002e+06	49.4869	39.1535	63.1026	-38.3506	1.74849	-0.182713	0.00277141	0.00406483	0.0015649	1	11	0.00150931	2.39184e-05	7.107e-07	0.0000000E+000	-100.086	0.0124278	0.00983275	0.0158472	38.3506	7.107e-07
891247	53.1296	34.3746	63.2801	-32.9027	2.34447	-0.182195	0.00282572	0.00519498	0.00153294	1	11	0.00234982	3.71336e-05	1.15236e-06	0.0000000E+000	-100.086	0.0132679	0.00858429	0.0158028	32.9027	4.41658e-07
794333	56.5732	30.8716	64.4483	-28.621	2.94049	-0.181751	0.00275648	0.00649021	0.0014892	1	11	0.00357398	5.54549e-05	1.62801e-06	0.0000000E+000	-100.046	0.0136203	0.00743252	0.0155163	28.621	4.75655e-07
707950	59.819	28.0887	66.0855	-25.1529	3.53649	-0.181331	0.00273539	0.00800363	0.00144589	1	11	0.00525717	7.95512e-05	2.08685e-06	0.0000000E+000	-100.046	0.0136971	0.0064316	0.0151319	25.1529	4.58842e-07
630957	62.707	25.9079	67.8483	-22.4484	4.13248	-0.180938	0.00277962	0.00973617	0.00141963	1	11	0.00745029	0.000109808	2.48558e-06	0.0000000E+000	-100.07	0.0136219	0.00562801	0.0147388	22.4484	3.98727e-07
562342	65.1799	24.0276	69.4676	-20.2356	4.72847	-0.180595	0.00284177	0.011779	0.00140917	1	11	0.0101855	0.000146623	2.70856e-06	0.0000000E+000	-100.078	0.0135067	0.00497903	0.0143952	20.2356	2.22981e-07
501206	67.3332	22.2602	70.9174	-18.2937	5.32548	-0.180315	0.00269825	0.0142651	0.00140549	1	11	0.0134788	0.000190064	3.0699e-06	0.0000000E+000	-100.062	0.0133882	0.00442612	0.0141009	18.2937	3.61339e-07
446686	69.1424	20.6061	72.1476	-16.5953	5.92149	-0.180061	0.00274678	0.0172911	0.00141049	1	11	0.0173392	0.000240329	3.48555e-06	0.0000000E+000	-100.07	0.0132831	0.00395869	0.0138605	16.5953	4.15647e-07
398103	70.736	18.9835	73.2391	-15.0226	6.51748	-0.179902	0.00270143	0.0210595	0.00141487	1	11	0.0218033	0.0002977	3.9494e-06	0.0000000E+000	-100.078	0.0131873	0.00353909	0.0136539	15.0226	4.63849e-07
354810	72.0498	17.4503	74.1329	-13.6147	7.11348	-0.179795	0.00265421	0.0257052	0.00142431	1	11	0.0269068	0.000362954	4.07755e-06	0.0000000E+000	-100.094	0.0131103	0.00317528	0.0134893	13.6147	1.28153e-07
316230	73.1182	15.9733	74.8426	-12.3232	7.70849	-0.179724	0.00274343	0.031508	0.00143521	1	11	0.0327225	0.000437218	4.62648e-06	0.0000000E+000	-100.086	0.0130535	0.00285166	0.0133614	12.3232	5.48931e-07
281835	73.9663	14.5704	75.3877	-11.1438	8.30348	-0.179694	0.00264657	0.0387575	0.00144775	1	11	0.0393079	0.000521409	4.15279e-06	0.0000000E+000	-100.134	0.0130147	0.00256371	0.0132648	11.1438	-4.73693e-07
251188	74.6385	13.2748	75.8098	-10.0849	8.89948	-0.179662	0.00256258	0.0477302	0.00146352	1	11	0.0467159	0.000616224	4.81882e-06	0.0000000E+000	-100.078	0.0129871	0.00230981	0.0131909	10.0849	6.66033e-07
223872	75.1425	12.1051	76.1113	-9.15145	9.49447	-0.179612	0.00263332	0.058729	0.00148556	1	11	0.0549619	0.000722125	3.94797e-06	0.0000000E+000	-100.11	0.0129714	0.00208963	0.0131386	9.15145	-8.7085e-07
199544	75.5225	11.0776	76.3306	-8.34461	10.0915	-0.179579	0.00280055	0.0720007	0.00151646	1	11	0.0640193	0.000838711	4.60875e-06	0.0000000E+000	-100.046	0.0129622	0.00190129	0.0131009	8.34461	6.60774e-07
177832	75.8183	10.1894	76.5	-7.65427	10.6865	-0.179557	0.00272515	0.0878337	0.00155825	1	11	0.073877	0.000965714	6.68715e-06	0.0000000E+000	-100.07	0.0129554	0.00174111	0.0130719	7.65427	2.07841e-06
158486	76.0626	9.43225	76.6451	-7.06896	11.2825	-0.179518	0.0028194	0.106467	0.00161241	1	11	0.0844837	0.00110227	6.5063e-06	0.0000000E+000	-100.102	0.012948	0.00160563	0.0130471	7.06896	-1.80856e-07
141256	76.2611	8.78619	76.7655	-6.57218	11.8785	-0.179526	0.00262717	0.128237	0.00167989	1	11	0.0958707	0.00124888	7.56377e-06	0.0000000E+000	-100.094	0.0129411	0.00149097	0.0130267	6.57218	1.05748e-06
125909	76.4336	8.23603	76.876	-6.15013	12.4755	-0.179492	0.0028894	0.153477	0.00176156	1	11	0.108162	0.00140697	9.03126e-06	0.0000000E+000	-100.038	0.0129331	0.00139359	0.013008	6.15013	1.46749e-06
112205	76.5947	7.77929	76.9887	-5.79933	12.9355	-0.179476	0.00272274	0.182334	0.00186163	1	11	0.121541	0.00157869	1.01521e-05	0.0000000E+000	-100.038	0.0129224	0.00131246	0.0129889	5.79933	1.12088e-06
100004	76.7338	7.40839	77.0906	-5.51462	13.3955	-0.179492	0.00267796	0.214823	0.00198392	1	11	0.136012	0.00176431	9.31407e-06	0.0000000E+000	-100.078	0.0129117	0.00124658	0.0129717	5.51462	-8.38065e-07
89129.3	76.8512	7.11489	77.1798	-5.28937	13.9925	-0.179405	0.00280244	0.250976	0.00213285	1	11	0.13025	0.00168762	1.39133e-05	0.0000000E+000	-100.094	0.0129016	0.00119443	0.0129567	5.28937	4.59923e-06
79433.3	76.9451	6.90157	77.254	-5.12541	14.5885	-0.17935	0.00290695	0.290315	0.00231699	1	11	0.129578	0.0016773	1.57465e-05	0.0000000E+000	-100.046	0.0128926	0.00115639	0.0129443	5.12541	1.83318e-06
70795	77.0261	6.76139	77.3223	-5.0166	15.1845	-0.179329	0.0027905	0.332492	0.0025424	1	11	0.12956	0.00167558	1.43281e-05	0.0000000E+000	-100.078	0.0128833	0.00113091	0.0129329	5.0166	-1.41838e-06
63093.8	77.0986	6.69888	77.389	-4.9658	15.7805	-0.179304	0.00281438	0.376558	0.00282147	1	11	0.129615	0.00167485	1.56435e-05	0.0000000E+000	-100.07	0.0128732	0.00111852	0.0129217	4.9658	1.31537e-06
56237	77.1545	6.71006	77.4457	-4.97046	16.3775	-0.179284	0.00271304	0.421766	0.00316613	1	11	0.129446	0.00167145	1.68131e-05	0.0000000E+000	-100.078	0.0128637	0.00111875	0.0129123	4.97046	1.16958e-06
50122.5	77.2131	6.80141	77.5121	-5.03397	16.9735	-0.179259	0.00277351	0.466862	0.00359457	1	11	0.129467	0.00167028	1.61447e-05	0.0000000E+000	-100.086	0.0128514	0.00113203	0.0129012	5.03397	-6.68338e-07
44666.7	77.2637	6.97536	77.5779	-5.15868	17.5685	-0.179227	0.00291479	0.510822	0.00412978	1	11	0.129322	0.001667	1.95195e-05	0.0000000E+000	-100.094	0.0128381	0.00115902	0.0128903	5.15868	3.37474e-06
39814.1	77.3213	7.22795	77.6583	-5.34046	18.0285	-0.179225	0.0029398	0.553055	0.00479096	1	11	0.140719	0.00181203	2.12613e-05	0.0000000E+000	-99.9898	0.012821	0.0011985	0.0128769	5.34046	1.74182e-06
35481	77.3728	7.56771	77.7421	-5.58624	18.6245	-0.179207	0.00293943	0.592734	0.00561664	1	11	0.130412	0.0016775	2.01531e-05	0.0000000E+000	-100.054	0.012802	0.00125214	0.012863	5.58624	-1.10821e-06
31621.1	77.4344	8.00078	77.8466	-5.89906	19.0845	-0.179205	0.00296388	0.629086	0.00664501	1	11	0.140345	0.00180284	2.19721e-05	0.0000000E+000	-100.078	0.0127778	0.00132024	0.0128458	5.89906	1.81899e-06
28188.1	77.4909	8.52524	77.9585	-6.2782	19.6805	-0.179183	0.0028896	0.66229	0.00792016	1	11	0.130194	0.00167004	2.45748e-05	0.0000000E+000	-100.07	0.0127504	0.00140275	0.0128273	6.2782	2.60273e-06
25116.9	77.5674	9.14623	78.1047	-6.72489	20.1405	-0.179196	0.00285824	0.692806	0.00950039	1	11	0.138368	0.00177157	2.62064e-05	0.0000000E+000	-100.078	0.0127152	0.0014993	0.0128033	6.72489	1.63159e-06
22389	77.6408	9.88209	78.2671	-7.25358	20.7365	-0.179172	0.00287019	0.719343	0.0114677	1	11	0.129889	0.00165957	2.48101e-05	0.0000000E+000	-100.054	0.0126745	0.00161321	0.0127768	7.25358	-1.39624e-06
19948.8	77.7369	10.7253	78.4733	-7.85543	21.1965	-0.179174	0.0029314	0.743868	0.0138953	1	11	0.136224	0.00173593	2.41811e-05	0.0000000E+000	-100.086	0.0126236	0.00174166	0.0127432	7.85543	-6.29069e-07
17786.9	77.8303	11.6972	78.7044	-8.54705	21.7925	-0.179166	0.00287186	0.764961	0.0168967	1	11	0.129335	0.00164329	2.49596e-05	0.0000000E+000	-100.102	0.0125647	0.00188835	0.0127058	8.54705	7.78543e-07
15847.7	77.9541	12.8084	78.9993	-9.33073	22.2525	-0.17916	0.00295884	0.784078	0.0206112	1	11	0.133971	0.00169585	2.43297e-05	0.0000000E+000	-100.11	0.0124909	0.00205234	0.0126583	9.33073	-6.2994e-07
14121.9	78.0966	14.0632	79.3527	-10.2081	22.7125	-0.179167	0.00289557	0.80139	0.0251702	1	11	0.137994	0.00173899	2.5832e-05	0.0000000E+000	-100.07	0.0124025	0.00223337	0.012602	10.2081	1.50228e-06
12590.9	78.2518	15.4776	79.7678	-11.1883	23.3085	-0.179156	0.00288344	0.81669	0.0307477	1	11	0.129379	0.00162195	2.81083e-05	0.0000000E+000	-100.078	0.0122981	0.00243248	0.0125364	11.1883	2.27633e-06
11217.7	78.4441	17.0813	80.2823	-12.2845	23.7675	-0.179149	0.00290788	0.830605	0.0376008	1	11	0.132015	0.00164438	2.9366e-05	0.0000000E+000	-100.07	0.0121708	0.00265022	0.012456	12.2845	1.25766e-06
10002.2	78.6668	18.8607	80.8962	-13.4824	24.2275	-0.179151	0.00290695	0.843657	0.045859	1	11	0.134156	0.00165837	3.12128e-05	0.0000000E+000	-100.062	0.0120209	0.00288205	0.0123615	13.4824	1.84682e-06
8914.93	78.926	20.8694	81.6385	-14.811	24.7099	-0.179136	0.00303144	0.855444	0.0559014	1	11	0.135906	0.00166473	3.16123e-05	0.0000000E+000	-100.11	0.0118421	0.00313127	0.0122491	14.811	3.99506e-07
7944	79.2214	23.1074	82.5226	-16.261	25.236	-0.179126	0.00310497	0.867021	0.0679808	1	11	0.137269	0.00166341	3.22319e-05	0.0000000E+000	-100.126	0.0116331	0.00339317	0.0121179	16.261	6.19658e-07
7082.23	79.563	25.6022	83.5808	-17.8374	25.8129	-0.179117	0.00317738	0.877755	0.0823595	1	11	0.138315	0.00165487	3.4191e-05	0.0000000E+000	-100.094	0.0113893	0.00366491	0.0119645	17.8374	1.95908e-06
6307.73	79.9582	28.399	84.8518	-19.5537	26.4466	-0.179102	0.00309788	0.888472	0.099524	1	11	0.139099	0.00163932	3.33052e-05	0.0000000E+000	-100.094	0.0111056	0.0039444	0.0117853	19.5537	-8.85824e-07
5621.06	80.4141	31.4975	86.3627	-21.3898	27.1473	-0.1791	0.00309657	0.898931	0.119571	1	11	0.139644	0.00161695	3.31154e-05	0.0000000E+000	-100.062	0.0107815	0.00422302	0.0115791	21.3898	-1.89753e-07
5011.6	80.9395	34.9229	88.1522	-23.3387	27.9077	-0.179109	0.0030165	0.909356	0.142721	1	11	0.139989	0.00158804	3.26703e-05	0.0000000E+000	-100.062	0.0104158	0.00449411	0.011344	23.3387	-4.45164e-07
4466.43	81.5429	38.7317	90.274	-25.407	28.6677	-0.179095	0.00311504	0.920011	0.169356	1	11	0.140173	0.00155275	3.19886e-05	0.0000000E+000	-100.078	0.010006	0.00475271	0.0110774	25.407	-6.81646e-07
3981.27	82.2378	42.9419	92.7743	-27.5721	29.4277	-0.179092	0.00314322	0.93093	0.199445	1	11	0.140221	0.00151143	3.33402e-05	0.0000000E+000	-100.046	0.00955469	0.00498914	0.0107788	27.5721	1.35155e-06
3546.6	83.0435	47.6305	95.7334	-29.8369	30.1869	-0.179095	0.0031714	0.942157	0.233221	1	11	0.14017	0.00146417	3.32606e-05	0.0000000E+000	-100.07	0.00906105	0.00519707	0.0104457	29.8369	-7.96257e-08
3161.01	83.9591	52.7914	99.1769	-32.1607	30.9467	-0.179088	0.00317943	0.953742	0.270232	1	11	0.140036	0.00141198	3.31004e-05	0.0000000E+000	-100.062	0.00853585	0.00536713	0.010083	32.1607	-1.60137e-07
2817.3	85.0076	58.4963	103.19	-34.5331	31.7069	-0.179102	0.00310365	0.965738	0.310344	1	11	0.13984	0.00135518	3.26067e-05	0.0000000E+000	-100.046	0.00798335	0.00549359	0.00969089	34.5331	-4.9367e-07
2510.8	86.1823	64.7769	107.812	-36.9295	32.4667	-0.179098	0.00318726	0.97856	0.353259	1	11	0.139586	0.00129472	3.30157e-05	0.0000000E+000	-100.062	0.00741453	0.00557296	0.0092754	36.9295	4.08948e-07
2237.85	87.5169	71.7122	113.145	-39.3315	33.227	-0.179104	0.00308629	0.991735	0.398391	1	11	0.139328	0.00123141	3.45962e-05	0.0000000E+000	-100.038	0.00683627	0.00560171	0.0088382	39.3315	1.58054e-06
1995.64	89.0049	79.3162	119.218	-41.7056	33.9867	-0.179099	0.00302096	1.00549	0.445058	1	11	0.13905	0.00116635	3.44704e-05	0.0000000E+000	-100.046	0.00626225	0.00558056	0.00838799	41.7056	-1.25794e-07
1778.29	90.6746	87.7509	126.183	-44.0612	34.747	-0.179101	0.00296105	1.01992	0.493251	1	11	0.138775	0.00109979	3.60339e-05	0.0000000E+000	-100.054	0.00569489	0.00551126	0.00792501	44.0612	1.56347e-06
1585.51	92.5129	96.9995	134.043	-46.3562	35.5067	-0.179086	0.0031684	1.03486	0.541917	1	11	0.138505	0.00103329	3.68673e-05	0.0000000E+000	-100.054	0.00514889	0.0053986	0.00746029	46.3562	8.33341e-07
1411.84	94.5752	107.314	143.041	-48.6103	36.2682	-0.179094	0.00311055	1.05046	0.591249	1	11	0.138255	0.00096654	3.82632e-05	0.0000000E+000	-100.118	0.0046223	0.00524487	0.00699101	48.6103	1.39591e-06
1258.79	96.8085	118.547	153.053	-50.7641	37.028	-0.179098	0.00313667	1.06653	0.639841	1	11	0.138021	0.000901785	3.92866e-05	0.0000000E+000	-100.07	0.00413264	0.00506064	0.00653367	50.7641	1.02342e-06
1121.79	99.2706	130.989	164.355	-52.8431	37.7864	-0.179081	0.0032145	1.08311	0.687975	1	11	0.137804	0.000838452	3.98665e-05	0.0000000E+000	-100.014	0.00367496	0.00484915	0.00608437	52.8431	5.79885e-07
1000.32	101.933	144.652	176.96	-54.8286	38.5457	-0.179082	0.00319826	1.09991	0.734952	1	11	0.137616	0.000777671	4.12494e-05	0.0000000E+000	-100.062	0.00325512	0.00461932	0.00565101	54.8286	1.38294e-06
891.427	104.846	159.815	191.137	-56.7334	39.3045	-0.179086	0.00322495	1.11716	0.781018	1	11	0.137451	0.00071912	4.25407e-05	0.0000000E+000	-100.062	0.00286985	0.00437448	0.00523184	56.7334	1.29124e-06
794.238	108.003	176.584	206.994	-58.5491	40.064	-0.179094	0.00315533	1.1348	0.825859	1	11	0.137301	0.000663308	4.27841e-05	0.0000000E+000	-100.118	0.0025207	0.00412132	0.00483106	58.5491	2.43435e-07
707.509	111.44	195.163	224.739	-60.2732	40.8265	-0.179084	0.00321057	1.15263	0.869221	1	11	0.137176	0.000610382	4.39486e-05	0.0000000E+000	-100.078	0.00220641	0.00386405	0.00444962	60.2732	1.16454e-06
631.01	115.102	215.536	244.345	-61.8965	41.5844	-0.179087	0.00315197	1.17021	0.910539	1	11	0.137067	0.000560957	4.49592e-05	0.0000000E+000	-99.9978	0.00192787	0.00361006	0.00409258	61.8965	1.01053e-06
562.339	119.082	238.194	266.302	-63.4378	42.3409	-0.179081	0.00316111	1.1882	0.95061	1	11	0.136994	0.000514431	4.54584e-05	0.0000000E+000	-100.11	0.00167918	0.00335877	0.00375513	63.4378	4.9924e-07
501.444	123.316	263.147	290.608	-64.8913	43.0982	-0.179088	0.00318948	1.20614	0.988964	1	11	0.136905	0.0004711	4.6476e-05	0.0000000E+000	-100.102	0.00146017	0.0031159	0.00344106	64.8913	1.01761e-06
446.859	127.92	291.065	317.935	-66.275	44.1049	-0.179091	0.00119664	1.22366	1.02557	1	12	0.139673	0.000439315	4.68454e-05	0.0000000E+000	-100.062	0.0012655	0.00287948	0.0031453	66.275	3.69387e-07
398.089	132.833	322.017	348.338	-67.5838	44.8677	-0.179094	0.00121844	1.24154	1.061	1	12	0.13909	0.000399296	4.69905e-05	0.0000000E+000	-100.046	0.00109472	0.00265385	0.00287078	67.5838	1.45076e-07
354.66	138.134	356.407	382.239	-68.8149	45.628	-0.179095	0.00118665	1.25911	1.09467	1	12	0.138624	0.000362663	4.74856e-05	0.0000000E+000	-100.078	0.000945434	0.00243936	0.00261616	68.8149	4.95142e-07
316.316	143.767	394.231	419.628	-69.9642	46.3849	-0.179099	0.00117476	1.27629	1.12648	1	12	0.138243	0.000329441	4.74202e-05	0.0000000E+000	-100.038	0.000816455	0.00223884	0.00238306	69.9642	-6.54232e-08
281.894	149.837	436.525	461.524	-71.0552	47.1404	-0.179092	0.0011845	1.29338	1.15705	1	12	0.137926	0.000298849	4.78894e-05	0.0000000E+000	-100.07	0.000703444	0.00204937	0.00216673	71.0552	4.69174e-07
251.044	156.389	483.9	508.544	-72.09	47.8969	-0.179092	0.00116703	1.31013	1.18623	1	12	0.137665	0.000270705	4.80122e-05	0.0000000E+000	-100.054	0.000604712	0.00187111	0.0019664	72.09	1.22873e-07
223.925	163.337	535.831	560.173	-73.0473	48.6597	-0.179092	0.00117343	1.32645	1.21367	1	12	0.137451	0.000245373	4.81377e-05	0.0000000E+000	-100.094	0.000520523	0.00170759	0.00178516	73.0473	1.2546e-07
199.553	170.861	594.047	618.13	-73.9536	49.4202	-0.17908	0.00116916	1.34258	1.24	1	12	0.137277	0.000222084	4.83443e-05	0.0000000E+000	-100.07	0.000447181	0.00155475	0.00161778	73.9536	2.06635e-07
177.781	179.007	659.079	682.955	-74.8049	50.1882	-0.179085	0.001172	1.3583	1.26499	1	12	0.137131	0.00020079	4.8741e-05	0.0000000E+000	-100.086	0.000383782	0.00141303	0.00146422	74.8049	3.96662e-07
158.428	187.75	731.356	755.07	-75.6022	50.9547	-0.179087	0.00116845	1.37359	1.28867	1	12	0.137018	0.000181464	4.88915e-05	0.0000000E+000	-100.102	0.00032931	0.00128279	0.00132438	75.6022	1.50504e-07
141.311	197.231	811.216	834.848	-76.3348	51.7079	-0.179094	0.00117621	1.38837	1.31089	1	12	0.136924	0.000164011	4.92879e-05	0.0000000E+000	-100.062	0.000282982	0.00116392	0.00119782	76.3348	3.96375e-07
125.846	207.518	901.292	924.874	-77.0339	52.4634	-0.179086	0.00117603	1.40319	1.33255	1	12	0.136848	0.000147964	4.94028e-05	0.0000000E+000	-100.078	0.000242601	0.00105366	0.00108123	77.0339	1.14883e-07
112.19	218.761	1001.03	1024.66	-77.6727	53.2089	-0.179094	0.00116727	1.41716	1.35256	1	12	0.136792	0.000133501	4.94871e-05	0.0000000E+000	-100.062	0.000208359	0.000953435	0.000975936	77.6727	8.43665e-08
100.032	230.666	1111.74	1135.42	-78.2785	53.9687	-0.179096	0.00117832	1.43112	1.37206	1	12	0.136736	0.000120428	4.9728e-05	0.0000000E+000	-100.11	0.000178925	0.000862367	0.000880733	78.2785	2.4093e-07
89.116	244.148	1236.55	1260.42	-78.831	54.7357	-0.179088	0.00119	1.44429	1.3901	1	12	0.136701	0.000108457	5.00681e-05	0.0000000E+000	-100.086	0.000153682	0.00077836	0.000793387	78.831	3.40028e-07
79.4155	258.538	1374.79	1398.89	-79.3495	55.4992	-0.179086	0.00118862	1.45774	1.40794	1	12	0.136666	9.76959e-05	5.02171e-05	0.0000000E+000	-100.078	0.000132117	0.000702539	0.000714854	79.3495	1.49007e-07
70.8387	274.655	1527.92	1552.41	-79.8095	56.2504	-0.179086	0.00118756	1.47044	1.42442	1	12	0.136638	8.80164e-05	5.05128e-05	0.0000000E+000	-100.086	0.000113966	0.000633998	0.000644159	79.8095	2.95739e-07
63.0823	292.08	1701.13	1726.02	-80.2574	57.0308	-0.179082	0.0011876	1.48312	1.44065	1	12	0.136617	7.91514e-05	5.07919e-05	0.0000000E+000	-100.062	9.80419e-05	0.000571012	0.000579368	80.2574	2.79031e-07
56.2418	311.495	1892.37	1917.83	-80.6526	57.7743	-0.179093	0.00118052	1.49539	1.45594	1	12	0.136598	7.12253e-05	5.10592e-05	0.0000000E+000	-100.078	8.46896e-05	0.000514498	0.000521422	80.6526	2.67312e-07
50.1444	332.861	2104.85	2131.01	-81.0137	58.5312	-0.179095	0.00117869	1.50791	1.47112	1	12	0.136587	6.40951e-05	5.13204e-05	0.0000000E+000	-100.078	7.32981e-05	0.000463502	0.000469262	81.0137	2.61262e-07
44.6712	356.809	2344.28	2371.28	-81.3457	59.2952	-0.179089	0.00117759	1.51979	1.48538	1	12	0.136574	5.75954e-05	5.15935e-05	0.0000000E+000	-100.07	6.34559e-05	0.000416912	0.000421714	81.3457	2.73043e-07
39.8089	383.914	2610.65	2638.73	-81.6342	60.0577	-0.179087	0.00117201	1.53141	1.49899	1	12	0.136571	5.17565e-05	5.17677e-05	0.0000000E+000	-100.03	5.51371e-05	0.000374938	0.00037897	81.6342	1.7421e-07
35.4653	413	2908.54	2937.72	-81.9183	61.0561	-0.17909	0.00100594	1.54291	1.51242	1	13	0.136823	4.65744e-05	5.21209e-05	0.0000000E+000	-100.07	4.78552e-05	0.000337019	0.0003404	81.9183	3.5326e-07
31.6296	446.336	3237.45	3268.07	-82.1503	61.7804	-0.179082	0.00100521	1.55426	1.52527	1	13	0.136763	4.18482e-05	5.22913e-05	0.0000000E+000	-100.102	4.17907e-05	0.000303124	0.000305991	82.1503	1.70367e-07
28.1701	483.303	3608.5	3640.73	-82.3715	62.5858	-0.179087	0.00101437	1.56569	1.5381	1	13	0.136718	3.75525e-05	5.24283e-05	0.0000000E+000	-100.078	3.64623e-05	0.00027224	0.000274671	82.3715	1.37042e-07