File: data/DE_40_12_60.mpt
EC-Lab ASCII FILE
Nb header lines : 75

Potentio Electrochemical Impedance Spectroscopy

Run on channel : 4 (SN 4192)
User :
CE vs. WE compliance from -10 V to 10 V
Electrode connection : standard
Ewe ctrl range : min = -10.00 V, max = 10.00 V
Safety Limits :
	Do not start on E overload
Acquisition started on : 01/24/2020 09:53:01
Technique started on : 01/24/2020 09:53:02
Saved on :
	File : DE_40_12_60.mpr
	Directory : P:\Chemistry\Data\VMP3\Kyler\DOE\DE_40\2ND 60C\
	Host : 10.0.4.99
Device : VMP3 (SN 0183)
Address : USB
EC-Lab for windows v11.33 (software)
Internet server v11.32 (firmware)
Command interpretor v11.33 (firmware)
Electrode material :
Initial state :
Electrolyte :
Comments :
Electrode surface area : 0.001 cm²
Characteristic mass : 0.001 g
Equivalent Weight : 0.000 g/eq.
Density : 0.000 g/cm3
Record Analogic IN 1
Cycle Definition : Charge/Discharge alternance
External device configuration :
   device type : Thermostat
   device name : Other
   Analog OUT :
      mode : E/V
      unit : T/°C
      max : 400.000 at 5.000 V
      min : -100.000 at 0.000 V
      current : 0.000
   Analog IN 1 :
      unit : T/°C
      max : 400.000 at 5.000 V
      min : -100.000 at 0.000 V
Mode                Single sine
E (V)               0.0000
vs.                 Eoc
tE (h:m:s)          0:00:0.0000
record              0
dI                  1.000
unit dI             mA
dt (s)              0.000
fi                  1.000
unit fi             MHz
ff                  1.000
unit ff             Hz
Nd                  20
Points              per decade
spacing             Logarithmic
Va (mV)             128.0
pw                  0.50
Na                  3
corr                0
E range min (V)     -10.000
E range max (V)     10.000
I Range             Auto
Bandwidth           5
nc cycles           0
goto Ns'            0
nr cycles           0
inc. cycle          1

freq/Hz	Re(Z)/Ohm	-Im(Z)/Ohm	|Z|/Ohm	Phase(Z)/deg	time/s	<Ewe>/V	<I>/mA	Cs/µF	Cp/µF	cycle number	I Range	|Ewe|/V	|I|/A	(Q-Qo)/mA.h	Analog OUT/V	Analog IN 1/V	Re(Y)/Ohm-1	Im(Y)/Ohm-1	|Y|/Ohm-1	Phase(Y)/deg	dq/mA.h
1.00002e+06	54.0759	18.3053	57.0901	-18.7015	1.64548	-0.0131357	0.00134103	0.00869433	0.000893853	1	11	0.000454222	7.95624e-06	3.94607e-07	0.0000000E+000	-100.129	0.0165913	0.00561635	0.0175162	18.7015	3.94607e-07
891247	55.5136	14.8139	57.4562	-14.9413	2.24149	-0.0128416	0.00166357	0.0120546	0.000801341	1	11	0.000531826	9.25621e-06	8.14345e-07	0.0000000E+000	-100.089	0.0168161	0.0044874	0.0174046	14.9413	4.19738e-07
794333	57.3028	13.853	58.9535	-13.5905	2.83749	-0.0126268	0.00208717	0.0144635	0.000798624	1	11	0.000434422	7.36889e-06	1.09228e-06	0.0000000E+000	-100.064	0.0164876	0.00398588	0.0169625	13.5905	2.77933e-07
707950	-20.7919	-8.93517	22.6305	156.745	3.6326	-0.0124736	0.268932	-0.0251602	-0.00392221	1	9	2.24354e-05	9.9138e-07	2.67025e-05	0.0000000E+000	-100.105	-0.040598	-0.0174467	0.0441881	-156.745	2.56102e-05
630957	61.2919	12.1079	62.4763	-11.1746	4.80848	-0.0123661	0.00257405	0.0208331	0.00078245	1	11	0.000940048	1.50465e-05	5.40929e-05	0.0000000E+000	-100.153	0.0157026	0.00310196	0.0160061	11.1746	2.73903e-05
562342	63.433	11.3403	64.4388	-10.136	5.40547	-0.0122877	0.00284913	0.0249572	0.000772946	1	11	0.00249222	3.86759e-05	5.48791e-05	0.0000000E+000	-100.073	0.0152764	0.00273105	0.0155186	10.136	7.86209e-07
501206	64.965	10.6698	65.8354	-9.32698	6.00247	-0.0122073	0.00307117	0.0297609	0.000781705	1	11	0.00473371	7.19022e-05	5.51807e-05	0.0000000E+000	-100.097	0.0149886	0.00246172	0.0151894	9.32698	3.01657e-07
446686	66.1022	9.97872	66.8512	-8.58449	6.59847	-0.0121183	0.00316311	0.0357062	0.000795563	1	11	0.00773419	0.000115693	5.54718e-05	0.0000000E+000	-100.145	0.014791	0.00223283	0.0149586	8.58449	2.91032e-07
398103	67.5477	9.39046	68.1973	-7.91451	7.19448	-0.0120477	0.00307843	0.0425733	0.000807191	1	11	0.0115657	0.000169592	5.66186e-05	0.0000000E+000	-100.105	0.0145237	0.00201907	0.0146633	7.91451	1.14688e-06
354810	68.3212	8.77983	68.883	-7.32284	7.79049	-0.0119749	0.0029342	0.0510903	0.000830015	1	11	0.0161714	0.000234767	5.74481e-05	0.0000000E+000	-100.089	0.014399	0.00185038	0.0145174	7.32284	8.29416e-07
316230	68.9066	8.11291	69.3826	-6.71496	8.38647	-0.0119491	0.00316331	0.0620355	0.000848189	1	11	0.0215775	0.000310993	5.80996e-05	0.0000000E+000	-100.145	0.014314	0.00168529	0.0144128	6.71496	6.51496e-07
281835	69.3054	7.50477	69.7105	-6.18022	8.98149	-0.01195	0.00282271	0.0752469	0.000872101	1	11	0.0278442	0.000399427	5.87707e-05	0.0000000E+000	-100.113	0.0142617	0.00154433	0.014345	6.18022	6.71148e-07
251188	69.6549	6.94688	70.0005	-5.69543	9.57747	-0.0119591	0.00309463	0.0912078	0.000898275	1	11	0.0349643	0.000499487	5.87567e-05	0.0000000E+000	-100.121	0.0142151	0.00141771	0.0142856	5.69543	-1.39875e-08
223872	69.9262	6.45126	70.2231	-5.27108	10.1735	-0.0119421	0.00330997	0.110199	0.000930048	1	11	0.0430241	0.000612677	5.86912e-05	0.0000000E+000	-100.04	0.0141801	0.00130823	0.0142403	5.27108	-6.5531e-08
199544	70.088	5.99497	70.3439	-4.88889	10.7705	-0.0119606	0.00274381	0.133044	0.00096631	1	11	0.0518986	0.000737783	6.0905e-05	0.0000000E+000	-100.129	0.0141641	0.00121153	0.0142159	4.88889	2.2138e-06
177832	70.2814	5.61864	70.5057	-4.57078	11.3665	-0.0119707	0.00318361	0.159287	0.00101156	1	11	0.0616072	0.000873791	6.01012e-05	0.0000000E+000	-100.097	0.0141382	0.00113027	0.0141833	4.57078	-8.03768e-07
158486	70.4188	5.29746	70.6178	-4.30213	11.9625	-0.0120247	0.00267607	0.189566	0.00106676	1	11	0.0719805	0.0010193	6.04565e-05	0.0000000E+000	-100.048	0.0141208	0.00106228	0.0141607	4.30213	3.55327e-07
141256	70.5166	5.03975	70.6964	-4.08793	12.5585	-0.0119997	0.00317747	0.223565	0.00113613	1	11	0.0830399	0.0011746	6.21547e-05	0.0000000E+000	-100.105	0.014109	0.00100836	0.014145	4.08793	1.69818e-06
125909	70.6422	4.83618	70.8075	-3.91637	13.1545	-0.0119748	0.00340919	0.261373	0.00121929	1	11	0.0949616	0.00134112	6.51714e-05	0.0000000E+000	-100.105	0.0140898	0.000964592	0.0141228	3.91637	3.01666e-06
112205	70.7201	4.68577	70.8751	-3.79076	13.7495	-0.0120331	0.00152813	0.30271	0.00132313	1	11	0.107788	0.00152081	6.81998e-05	0.0000000E+000	-100.097	0.0140785	0.00093281	0.0141093	3.79076	3.02842e-06
100004	70.7489	4.59104	70.8977	-3.71283	14.2095	-0.0119736	0.0027725	0.346651	0.00145362	1	11	0.121578	0.00171484	7.00892e-05	0.0000000E+000	-100.089	0.0140752	0.000913369	0.0141048	3.71283	1.88941e-06
89129.3	70.8048	4.54649	70.9506	-3.67401	14.6685	-0.0119613	0.00291432	0.392757	0.00161274	1	11	0.13655	0.00192458	6.96162e-05	0.0000000E+000	-100.113	0.0140653	0.000903158	0.0140943	3.67401	-4.73045e-07
79433.3	70.8454	4.55071	70.9914	-3.67531	15.2635	-0.0119437	0.00272877	0.44029	0.00180919	1	11	0.130267	0.00183497	6.54765e-05	0.0000000E+000	-100.064	0.0140572	0.000902957	0.0140862	3.67531	-4.13966e-06
70795	70.8777	4.60717	71.0273	-3.7191	15.8585	-0.0118927	0.00338575	0.487959	0.00205306	1	11	0.129755	0.00182684	6.47737e-05	0.0000000E+000	-100.089	0.0140495	0.000913239	0.0140791	3.7191	-7.02752e-07
63093.8	70.9076	4.72397	71.0648	-3.8115	16.4535	-0.011902	0.00326143	0.533981	0.00235956	1	11	0.129623	0.00182401	6.79705e-05	0.0000000E+000	-100.129	0.0140405	0.000935403	0.0140717	3.8115	3.19673e-06
56237	70.9397	4.89172	71.1081	-3.94465	17.0485	-0.0119141	0.0030902	0.578544	0.00273792	1	11	0.129587	0.0018224	7.04104e-05	0.0000000E+000	-100.137	0.0140298	0.000967439	0.0140631	3.94465	2.43989e-06
50122.5	70.955	5.11268	71.1389	-4.12134	17.6435	-0.0118974	0.00321899	0.621068	0.00320791	1	11	0.129469	0.00181995	7.41023e-05	0.0000000E+000	-100.056	0.0140207	0.00101026	0.014057	4.12134	3.69192e-06
44666.7	70.9888	5.39827	71.1937	-4.34863	18.2385	-0.0118855	0.00340623	0.660057	0.00379496	1	11	0.1294	0.00181757	7.30546e-05	0.0000000E+000	-100.129	0.0140057	0.00106505	0.0140462	4.34863	-1.04764e-06
39814.1	71.0094	5.74822	71.2417	-4.62801	18.8335	-0.0119021	0.00318568	0.695425	0.0045274	1	11	0.129348	0.00181563	7.32876e-05	0.0000000E+000	-100.048	0.013991	0.00113257	0.0140367	4.62801	2.32962e-07
35481	71.0405	6.17341	71.3083	-4.96652	19.2925	-0.0118616	0.00366158	0.726606	0.0054459	1	11	0.140455	0.00196968	7.51399e-05	0.0000000E+000	-100.105	0.013971	0.00121408	0.0140236	4.96652	1.85231e-06
31621.1	71.0708	6.66609	71.3828	-5.35838	19.8885	-0.0118938	0.00334779	0.755042	0.00658457	1	11	0.130284	0.00182515	7.71491e-05	0.0000000E+000	-100.089	0.0139478	0.00130823	0.014009	5.35838	2.00916e-06
28188.1	71.1178	7.23802	71.4852	-5.81127	20.3485	-0.0119003	0.00308592	0.780072	0.00799728	1	11	0.139783	0.00195541	7.59227e-05	0.0000000E+000	-100.089	0.013917	0.00141641	0.0139889	5.81127	-1.22636e-06
25116.9	71.1668	7.89817	71.6037	-6.33284	20.9455	-0.011881	0.00345313	0.802282	0.00976134	1	11	0.130132	0.0018174	7.50504e-05	0.0000000E+000	-100.097	0.0138805	0.00154048	0.0139658	6.33284	-8.72316e-07
22389	71.2213	8.64379	71.7439	-6.91987	21.4055	-0.0118784	0.00334704	0.822395	0.0119376	1	11	0.13775	0.00192002	7.66664e-05	0.0000000E+000	-100.064	0.0138369	0.00167932	0.0139385	6.91987	1.61597e-06
19948.8	71.2809	9.49924	71.911	-7.5908	22.0015	-0.0118827	0.00337626	0.839875	0.0146555	1	11	0.129633	0.00180268	8.12424e-05	0.0000000E+000	-100.097	0.0137842	0.00183695	0.0139061	7.5908	4.57598e-06
17786.9	71.3631	10.4638	72.1261	-8.34174	22.4615	-0.0118738	0.00334574	0.855123	0.0179981	1	11	0.135403	0.00187731	8.30778e-05	0.0000000E+000	-100.113	0.0137179	0.00201144	0.0138646	8.34174	1.83547e-06
15847.7	71.4762	11.5526	72.4038	-9.18126	22.9215	-0.011862	0.00340251	0.869308	0.0221316	1	11	0.14064	0.00194243	8.5342e-05	0.0000000E+000	-100.056	0.0136345	0.00220373	0.0138114	9.18126	2.26417e-06
14121.9	71.578	12.7749	72.709	-10.1193	23.5165	-0.0118667	0.00339506	0.88221	0.0272337	1	11	0.129743	0.00178441	8.63128e-05	0.0000000E+000	-100.105	0.0135395	0.00241646	0.0137534	10.1193	9.70757e-07
12590.9	71.718	14.1427	73.0991	-11.1555	23.9765	-0.0118652	0.00338482	0.89378	0.0334556	1	11	0.133219	0.00182244	8.61979e-05	0.0000000E+000	-100.04	0.0134216	0.00264671	0.0136801	11.1555	-1.14891e-07
11217.7	71.871	15.6789	73.5614	-12.3065	24.4355	-0.0118698	0.00335188	0.9049	0.0411085	1	11	0.136148	0.00185081	8.57444e-05	0.0000000E+000	-100.016	0.0132817	0.00289745	0.0135941	12.3065	-4.53431e-07
10002.2	72.0628	17.3867	74.1306	-13.5646	24.8955	-0.0118637	0.00324226	0.915179	0.0503437	1	11	0.138573	0.00186931	8.46851e-05	0.0000000E+000	-100.129	0.0131134	0.00316389	0.0134897	13.5646	-1.05931e-06
8914.93	72.2838	19.298	74.8155	-14.948	25.3779	-0.0118367	0.00380154	0.925101	0.0615506	1	11	0.140537	0.00187844	8.49391e-05	0.0000000E+000	-100.113	0.0129139	0.00344771	0.0133662	14.948	2.53947e-07
7944	72.5265	21.4341	75.6275	-16.4642	26.058	-0.011811	0.00413692	0.934708	0.0750804	1	11	0.129484	0.00171213	8.89445e-05	0.0000000E+000	-100.073	0.0126805	0.00374753	0.0132227	16.4642	4.00548e-06
7082.23	72.8029	23.7844	76.5896	-18.092	26.6349	-0.0117956	0.00414622	0.944837	0.0911178	1	11	0.130557	0.00170463	8.98316e-05	0.0000000E+000	-100.064	0.0124111	0.00405465	0.0130566	18.092	8.87059e-07
6307.73	73.1361	26.4389	77.7683	-19.8751	27.2686	-0.0117845	0.00396253	0.954339	0.110303	1	11	0.131355	0.00168905	9.04946e-05	0.0000000E+000	-100.032	0.0120928	0.00437159	0.0128587	19.8751	6.63008e-07
5621.06	73.5218	29.3685	79.1705	-21.7744	27.9693	-0.0117811	0.00395192	0.964095	0.132665	1	11	0.131912	0.00166617	9.02807e-05	0.0000000E+000	-100.048	0.0117298	0.0046855	0.012631	21.7744	-2.13881e-07
5011.6	73.9542	32.6039	80.8223	-23.791	28.7297	-0.0117658	0.00414808	0.974035	0.158508	1	11	0.132264	0.00163647	9.22123e-05	0.0000000E+000	-100.04	0.0113214	0.00499122	0.0123728	23.791	1.93154e-06
4466.43	74.4427	36.2037	82.7793	-25.935	29.4897	-0.011767	0.00386053	0.984254	0.188264	1	11	0.132457	0.00160012	9.31187e-05	0.0000000E+000	-100.089	0.0108637	0.00528334	0.0120803	25.935	9.06396e-07
3981.27	75.0084	40.1928	85.0983	-28.1843	30.2497	-0.0117532	0.00418903	0.994604	0.221873	1	11	0.132509	0.00155713	9.52068e-05	0.0000000E+000	-100.161	0.0103578	0.00555017	0.0117511	28.1843	2.08817e-06
3546.6	75.6464	44.6302	87.8307	-30.5399	31.0099	-0.0117671	0.00408908	1.0055	0.259624	1	11	0.132456	0.00150808	9.71085e-05	0.0000000E+000	-100.064	0.00980608	0.00578543	0.0113855	30.5399	1.90166e-06
3161.01	76.3671	49.5239	91.0195	-32.9633	31.7697	-0.0117708	0.00404571	1.01667	0.300982	1	11	0.132311	0.00145365	9.90536e-05	0.0000000E+000	-100.073	0.00921801	0.00597786	0.0109867	32.9633	1.94508e-06
2817.3	77.1521	54.9248	94.7057	-35.4472	32.5289	-0.0117761	0.00407121	1.02854	0.345942	1	11	0.132108	0.00139493	0.000101064	0.0000000E+000	-100.137	0.00860191	0.00612373	0.010559	35.4472	2.01003e-06
2510.8	78.0503	60.9172	99.0088	-37.9716	33.2887	-0.0117735	0.00405092	1.04056	0.393912	1	11	0.131857	0.00133177	0.000102413	0.0000000E+000	-100.073	0.00796208	0.0062143	0.0101001	37.9716	1.34927e-06
2237.85	79.031	67.5436	103.962	-40.5188	34.0489	-0.0117696	0.00411084	1.05294	0.444453	1	11	0.131575	0.00126561	0.000102235	0.0000000E+000	-100.081	0.00731224	0.00624938	0.00961892	40.5188	-1.77555e-07
1995.64	80.1187	74.834	109.632	-43.0467	34.8087	-0.0117985	0.00375294	1.06571	0.496551	1	11	0.13129	0.00119755	0.00010379	0.0000000E+000	-100.113	0.00666593	0.00622624	0.00912144	43.0467	1.5548e-06
1778.29	81.3209	82.9641	116.173	-45.5731	35.5689	-0.0117726	0.0040457	1.07876	0.550171	1	11	0.130998	0.00112761	0.000103738	0.0000000E+000	-100.032	0.00602549	0.00614725	0.00860786	45.5731	-5.24434e-08
1585.51	82.6533	91.9308	123.624	-48.0419	36.3287	-0.0117619	0.00430961	1.09192	0.603822	1	11	0.130725	0.00105744	0.000104086	0.0000000E+000	-100.064	0.00540824	0.0060153	0.00808906	48.0419	3.4849e-07
1411.84	84.0848	101.951	132.152	-50.4856	37.0902	-0.0117829	0.00406915	1.10572	0.658077	1	11	0.130454	0.000987149	0.000104285	0.0000000E+000	-100.073	0.0048147	0.0058377	0.00756704	50.4856	1.98638e-07
1258.79	85.6144	112.93	141.714	-52.8334	37.8499	-0.0117763	0.0040496	1.11959	0.710963	1	11	0.130207	0.000918803	0.0001046	0.0000000E+000	-100.048	0.00426305	0.00562317	0.00705646	52.8334	3.14745e-07
1121.79	87.3784	125.296	152.755	-55.109	38.6084	-0.0117868	0.00379407	1.13232	0.761823	1	11	0.129992	0.000850985	0.00010565	0.0000000E+000	-100.105	0.00374468	0.00536967	0.00654645	55.109	1.05074e-06
1000.32	89.2379	138.886	165.084	-57.2783	39.3677	-0.0117771	0.00394873	1.14557	0.810829	1	11	0.129789	0.000786195	0.000105784	0.0000000E+000	-100.016	0.00327444	0.00509622	0.00605751	57.2783	1.3358e-07
891.427	91.2375	154.049	179.04	-59.3633	40.1264	-0.0117811	0.0040161	1.15898	0.858012	1	11	0.129606	0.000723898	0.000106048	0.0000000E+000	-100.081	0.00284626	0.00480572	0.00558535	59.3633	2.63797e-07
794.238	93.4049	170.947	194.801	-61.3479	40.886	-0.0117845	0.00412032	1.17222	0.902713	1	11	0.129455	0.000664554	0.000107347	0.0000000E+000	-100.137	0.00246144	0.00450485	0.00513345	61.3479	1.29939e-06
707.509	95.6793	189.62	212.392	-63.2252	41.6484	-0.0117882	0.00412348	1.18632	0.945575	1	11	0.129325	0.000608896	0.000107677	0.0000000E+000	-100.073	0.002121	0.00420347	0.00470827	63.2252	3.30341e-07
631.01	98.1553	210.266	232.048	-64.9761	42.4064	-0.0117881	0.00403936	1.19954	0.984914	1	11	0.129214	0.000556842	0.000108103	0.0000000E+000	-100.121	0.00182289	0.00390494	0.00430946	64.9761	4.252e-07
562.339	100.783	233.226	254.069	-66.6296	43.1619	-0.0117873	0.00391633	1.21352	1.02257	1	11	0.129114	0.000508183	0.000109091	0.0000000E+000	-100.089	0.00156128	0.00361303	0.00393593	66.6296	9.88769e-07
501.444	103.654	258.953	278.928	-68.1846	43.9192	-0.0117872	0.00393494	1.22568	1.05642	1	11	0.129037	0.000462617	0.000110115	0.0000000E+000	-100.064	0.00133231	0.00332841	0.00358516	68.1846	1.02357e-06
446.859	106.832	287.892	307.075	-69.6409	44.9259	-0.0117805	0.00038514	1.23714	1.0874	1	12	0.131757	0.000429072	0.000110517	0.0000000E+000	-100.121	0.00113295	0.0030531	0.00325653	69.6409	4.02501e-07
398.089	110.227	320.027	338.478	-70.9947	45.6887	-0.0117815	0.000405016	1.24926	1.11678	1	12	0.131177	0.00038755	0.000110626	0.0000000E+000	-100.097	0.000962116	0.00279336	0.0029544	70.9947	1.08663e-07
354.66	113.865	355.772	373.549	-72.2527	46.4489	-0.0117941	0.000398272	1.26135	1.14416	1	12	0.130702	0.000349892	0.000110883	0.0000000E+000	-100.073	0.000816008	0.00254963	0.00267703	72.2527	2.57056e-07
316.316	117.797	395.288	412.467	-73.4058	47.2059	-0.0117936	0.000391081	1.27287	1.16906	1	12	0.130324	0.000315961	0.000110762	0.0000000E+000	-100.064	0.000692397	0.00232346	0.00242444	73.4058	-1.2131e-07
281.894	122.028	439.591	456.214	-74.4856	47.9614	-0.011794	0.000398177	1.28436	1.19247	1	12	0.130004	0.000284962	0.000110911	0.0000000E+000	-100.161	0.000586306	0.00211209	0.00219196	74.4856	1.4889e-07
251.044	126.716	489.323	505.464	-75.4816	48.7179	-0.0117954	0.00040313	1.29561	1.21419	1	12	0.129747	0.000256688	0.000110726	0.0000000E+000	-100.073	0.000495963	0.0019152	0.00197838	75.4816	-1.84884e-07
223.925	131.743	544.165	559.886	-76.3905	49.4807	-0.0117915	0.000395157	1.30613	1.23381	1	12	0.129541	0.00023137	0.000110589	0.0000000E+000	-100.097	0.000420271	0.00173593	0.00178608	76.3905	-1.36815e-07
199.553	137.224	605.65	621.001	-77.2338	50.2422	-0.0117987	0.000417659	1.31686	1.25256	1	12	0.129372	0.000208328	0.00011054	0.0000000E+000	-100.097	0.000355833	0.0015705	0.0016103	77.2338	-4.95043e-08
177.781	143.263	674.511	689.557	-78.0089	51.0102	-0.0118026	0.000394672	1.32723	1.26994	1	12	0.129234	0.000187416	0.000110671	0.0000000E+000	-100.081	0.000301295	0.00141856	0.00145021	78.0089	1.31605e-07
158.428	149.858	751.009	765.815	-78.7153	51.7767	-0.0117919	0.0003837	1.33765	1.28643	1	12	0.129117	0.0001686	0.000110724	0.0000000E+000	-100.089	0.000255524	0.00128055	0.0013058	78.7153	5.3121e-08
141.311	157.075	836.185	850.811	-79.3611	52.5299	-0.0117979	0.000394038	1.34692	1.30101	1	12	0.129033	0.000151659	0.000110911	0.0000000E+000	-100.121	0.000216991	0.00115515	0.00117535	79.3611	1.863e-07
125.846	165.079	932.209	946.712	-79.958	53.2854	-0.0117919	0.000416689	1.35665	1.3154	1	12	0.128962	0.00013622	0.000110903	0.0000000E+000	-100.073	0.000184185	0.0010401	0.00105629	79.958	-7.975e-09
112.19	173.724	1038.13	1052.56	-80.5	54.0309	-0.011796	0.000441035	1.36652	1.32929	1	12	0.1289	0.000122463	0.00011086	0.0000000E+000	-100.048	0.000156806	0.000937033	0.000950063	80.5	-4.24519e-08
100.032	183.417	1156.34	1170.8	-80.9869	54.7907	-0.0117975	0.000411677	1.37593	1.34216	1	12	0.128855	0.000110057	0.000110907	0.0000000E+000	-100.081	0.000133806	0.000843573	0.000854119	80.9869	4.66662e-08
89.116	194.005	1289.44	1303.95	-81.4436	55.5577	-0.0117887	0.00040987	1.38504	1.35438	1	12	0.128817	9.87897e-05	0.000111039	0.0000000E+000	-100.097	0.000114101	0.000758363	0.000766898	81.4436	1.32114e-07
79.4155	205.977	1438.12	1452.8	-81.8491	56.3222	-0.0117972	0.000391447	1.39354	1.36553	1	12	0.128792	8.8651e-05	0.000111066	0.0000000E+000	-100.04	9.75911e-05	0.000681375	0.000688328	81.8491	2.73934e-08
70.8387	219.334	1602.91	1617.84	-82.2083	57.0734	-0.0117972	0.000374271	1.40165	1.37589	1	12	0.128763	7.95892e-05	0.000111184	0.0000000E+000	-100.097	8.37977e-05	0.0006124	0.000618106	82.2083	1.17772e-07
63.0823	234.248	1789.76	1805.02	-82.5434	57.8538	-0.0118026	0.000408565	1.40967	1.38593	1	12	0.128741	7.13235e-05	0.000111261	0.0000000E+000	-100.161	7.1897e-05	0.000549324	0.000554009	82.5434	7.72466e-08
56.2418	251.062	1995.02	2010.76	-82.8274	58.5984	-0.0117956	0.000413166	1.41845	1.39633	1	12	0.128732	6.40215e-05	0.000111397	0.0000000E+000	-100.081	6.20957e-05	0.000493433	0.000497325	82.8274	1.35875e-07
50.1444	268.904	2224.15	2240.35	-83.1063	59.3552	-0.0118019	0.000400014	1.42703	1.40647	1	12	0.128718	5.74545e-05	0.000111528	0.0000000E+000	-100.056	5.35756e-05	0.000443133	0.00044636	83.1063	1.30852e-07
44.6712	289.89	2479.73	2496.62	-83.3322	60.1192	-0.0117982	0.000398357	1.43677	1.4174	1	12	0.128706	5.1552e-05	0.000111604	0.0000000E+000	-100.056	4.6508e-05	0.000397832	0.000400541	83.3322	7.63822e-08
39.8089	314.691	2771.21	2789.02	-83.5214	61.1347	-0.0118029	4.29488e-05	1.44268	1.42432	1	13	0.128986	4.62477e-05	0.0001117	0.0000000E+000	-100.073	4.04559e-05	0.00035626	0.000358549	83.5214	9.57406e-08
35.4653	341.418	3092.7	3111.49	-83.7004	61.8841	-0.0117925	4.50869e-05	1.45104	1.43356	1	13	0.128919	4.14331e-05	0.000111688	0.0000000E+000	-100.048	3.52654e-05	0.000319449	0.000321389	83.7004	-1.20131e-08
31.6296	372.151	3449.02	3469.04	-83.8416	62.6084	-0.0117998	4.27439e-05	1.45892	1.44213	1	13	0.128866	3.71475e-05	0.000111734	0.0000000E+000	-100.056	3.09243e-05	0.000286601	0.000288264	83.8416	4.57586e-08
28.1701	407.518	3850.32	3871.82	-83.9583	63.4137	-0.011792	4.64333e-05	1.46736	1.4511	1	13	0.128826	3.32727e-05	0.000111802	0.0000000E+000	-100.081	2.71841e-05	0.000256842	0.000258276	83.9583	6.82879e-08
25.1044	447.267	4296.79	4320	-84.0573	64.1689	-0.0117978	4.37643e-05	1.47545	1.45964	1	13	0.128796	2.98138e-05	0.000111805	0.0000000E+000	-100.105	2.39662e-05	0.000230237	0.000231481	84.0573	2.56529e-09
22.3854	493.205	4791.59	4816.91	-84.1232	64.8554	-0.0118025	3.827e-05	1.4838	1.46825	1	13	0.128766	2.67321e-05	0.000111759	0.0000000E+000	-100.089	2.12565e-05	0.000206511	0.000207602	84.1232	-4.57951e-08
19.9553	544.543	5345.22	5372.88	-84.1831	65.6172	-0.0118003	4.05979e-05	1.4921	1.47677	1	13	0.128752	2.39632e-05	0.000111739	0.0000000E+000	-100.024	1.88633e-05	0.000185161	0.00018612	84.1831	-1.97127e-08
17.7961	605.195	5959.84	5990.49	-84.2018	66.4615	-0.0118033	3.98855e-05	1.50058	1.48527	1	13	0.128732	2.14894e-05	0.000111744	0.0000000E+000	-100.073	1.68644e-05	0.000166077	0.000166931	84.2018	5.12292e-09
15.8576	674.304	6648.18	6682.29	-84.2085	67.184	-0.0117849	4.36671e-05	1.50966	1.49429	1	13	0.128717	1.92624e-05	0.000111855	0.0000000E+000	-100.105	1.5101e-05	0.000148885	0.000149649	84.2085	1.10668e-07
14.119	753.573	7422.49	7460.65	-84.2029	67.9863	-0.0118008	4.25943e-05	1.51868	1.50319	1	13	0.128709	1.72518e-05	0.000111797	0.0000000E+000	-100.081	1.35386e-05	0.000133351	0.000134037	84.2029	-5.76575e-08
12.6008	843.913	8269.59	8312.54	-84.1731	68.8769	-0.0117965	3.96181e-05	1.52735	1.5116	1	13	0.128701	1.54827e-05	0.000111782	0.0000000E+000	-100.073	1.22132e-05	0.000119679	0.0001203	84.1731	-1.56356e-08
11.2249	949.203	9225.21	9273.91	-84.1254	69.5609	-0.0117979	4.43896e-05	1.53696	1.52086	1	13	0.128696	1.38772e-05	0.00011185	0.0000000E+000	-100.064	1.10366e-05	0.000107263	0.000107829	84.1254	6.78806e-08
10.0032	1074.97	10289.1	10345.1	-84.0356	70.3207	-0.0117893	4.25159e-05	1.54634	1.52964	1	13	0.128691	1.24398e-05	0.000111882	0.0000000E+000	-100.089	1.00444e-05	9.61409e-05	9.66642e-05	84.0356	3.27887e-08
8.91838	1208.54	11459.3	11522.9	-83.9796	71.164	-0.0117956	3.96626e-05	1.55731	1.54018	1	13	0.128683	1.11676e-05	0.000111832	0.0000000E+000	-100.089	9.10204e-06	8.63052e-05	8.67839e-05	83.9796	-5.00748e-08
7.93953	1370.72	12788.6	12861.8	-83.8822	72.1027	-0.0117974	3.96393e-05	1.56749	1.54968	1	13	0.128683	1.0005e-05	0.000111892	0.0000000E+000	-100.121	8.28599e-06	7.73068e-05	7.77496e-05	83.8822	5.94015e-08
7.07654	1556.05	14247.2	14331.9	-83.767	72.661	-0.0118021	3.54721e-05	1.57859	1.55998	1	13	0.128672	8.97797e-06	0.000111885	0.0000000E+000	-100.097	7.57555e-06	6.93618e-05	6.97743e-05	83.767	-6.77288e-09
6.31058	1779.71	15892.7	15992	-83.6105	73.2812	-0.0117963	1.88814e-05	1.58691	1.56726	1	13	0.128677	8.04632e-06	0.000111848	0.0000000E+000	-100.105	6.95892e-06	6.21427e-05	6.25311e-05	83.6105	-3.74223e-08
5.6205	2004.09	17735.5	17848.4	-83.553	73.9677	-0.0118005	4.05044e-05	1.59662	1.57649	1	13	0.128677	7.20946e-06	0.00011182	0.0000000E+000	-100.056	6.29102e-06	5.56732e-05	5.60275e-05	83.553	-2.71848e-08
5.01444	2348.07	19807.9	19946.6	-83.2396	74.7252	-0.0118119	7.56245e-05	1.60235	1.58015	1	13	0.128668	6.45061e-06	0.000111852	0.0000000E+000	-100.105	5.90164e-06	4.97852e-05	5.01338e-05	83.2396	3.16509e-08
4.46939	2647.56	21939.1	22098.3	-83.1189	75.5665	-0.0118023	4.67174e-05	1.62313	1.59983	1	13	0.12867	5.82262e-06	0.000111943	0.0000000E+000	-100.04	5.42163e-06	4.49265e-05	4.52524e-05	83.1189	9.05209e-08
3.97785	3051.5	24499.9	24689.2	-82.9003	76.5032	-0.011796	2.84878e-05	1.63308	1.60813	1	13	0.128674	5.21175e-06	0.000111937	0.0000000E+000	-100.056	5.00608e-06	4.01929e-05	4.05035e-05	82.9003	-5.35338e-09
3.55114	3655.84	27310	27553.6	-82.3755	77.8754	-0.0117804	-3.15227e-05	1.64109	1.6122	1	14	0.128691	4.67057e-06	0.000111905	0.0000000E+000	-100.073	4.81538e-06	3.5972e-05	3.62929e-05	82.3755	-3.2697e-08
3.1604	3944.33	30448.5	30702.9	-82.6189	79.0372	-0.0117996	2.40105e-05	1.65391	1.62662	1	14	0.128697	4.19169e-06	0.000111874	0.0000000E+000	-100.073	4.18423e-06	3.23003e-05	3.25702e-05	82.6189	-3.02147e-08
2.81836	4592.32	33613.9	33926.1	-82.2204	80.3316	-0.0117913	7.92744e-06	1.67998	1.6492	1	14	0.128686	3.79312e-06	0.000111977	0.0000000E+000	-100.056	3.98992e-06	2.92045e-05	2.94758e-05	82.2204	1.02331e-07
2.51367	5437.02	37423	37815.9	-81.7336	81.7767	-0.0117909	-9.16047e-06	1.69189	1.65692	1	14	0.128682	3.40287e-06	0.000111889	0.0000000E+000	-100.113	3.80201e-06	2.61692e-05	2.64439e-05	81.7336	-8.73691e-08
2.23982	6139.78	41709.4	42158.9	-81.626	83.3914	-0.011792	1.61837e-05	1.70362	1.66749	1	14	0.128682	3.05232e-06	0.000111907	0.0000000E+000	-100.048	3.45441e-06	2.34669e-05	2.37198e-05	81.626	1.74353e-08
1.99706	6929.53	46190.5	46707.4	-81.4681	85.1957	-0.0117939	-2.57487e-06	1.72535	1.68737	1	14	0.128678	2.75499e-06	0.000111976	0.0000000E+000	-100.097	3.17638e-06	2.1173e-05	2.14099e-05	81.4681	6.9348e-08
1.77961	8068.74	51111.1	51744.1	-81.0289	87.2138	-0.0117905	5.28693e-06	1.74976	1.70722	1	14	0.128678	2.48682e-06	0.000111868	0.0000000E+000	-100.161	3.01359e-06	1.90895e-05	1.93259e-05	81.0289	-1.08281e-07
1.58469	9427.3	56738.2	57516	-80.5662	89.473	-0.0117894	7.08373e-06	1.77012	1.72256	1	14	0.128675	2.2372e-06	0.000111988	0.0000000E+000	-100.073	2.84977e-06	1.71513e-05	1.73865e-05	80.5662	1.20505e-07
1.41224	10895.4	62959.6	63895.4	-80.182	92.0021	-0.0117823	2.55401e-07	1.78999	1.73794	1	14	0.128674	2.01383e-06	0.000111897	0.0000000E+000	-100.073	2.66873e-06	1.54214e-05	1.56506e-05	80.182	-9.09272e-08
1.25967	12506.8	69790.7	70902.5	-79.8402	94.8309	-0.0117868	8.11591e-06	1.81036	1.75403	1	14	0.128677	1.81485e-06	0.000111956	0.0000000E+000	-100.089	2.48784e-06	1.38827e-05	1.41039e-05	79.8402	5.86967e-08
1.12249	14334.6	77281.6	78599.8	-79.4919	97.9971	-0.0117808	1.23676e-06	1.83469	1.77367	1	14	0.128676	1.6371e-06	0.000111946	0.0000000E+000	-100.064	2.32029e-06	1.25093e-05	1.27227e-05	79.4919	-9.94159e-09
1.00006	16439.2	85510.2	87076	-79.1178	101.546	-0.0117816	5.78334e-06	1.86112	1.79479	1	14	0.128673	1.47771e-06	0.000111923	0.0000000E+000	-100.137	2.16811e-06	1.12777e-05	1.14842e-05	79.1178	-2.29767e-08