File: data/DE_40_5_60.mpt
EC-Lab ASCII FILE
Nb header lines : 75

Potentio Electrochemical Impedance Spectroscopy

Run on channel : 1 (SN 20909)
User :
CE vs. WE compliance from -10 V to 10 V
Electrode connection : standard
Ewe ctrl range : min = -10.00 V, max = 10.00 V
Safety Limits :
	Do not start on E overload
Acquisition started on : 01/24/2020 09:52:24
Technique started on : 01/24/2020 09:52:25
Saved on :
	File : DE_40_5_60.mpr
	Directory : P:\Chemistry\Data\VMP3\Kyler\DOE\DE_40\2ND 60C\
	Host : 10.0.4.99
Device : VMP3 (SN 0183)
Address : USB
EC-Lab for windows v11.33 (software)
Internet server v11.32 (firmware)
Command interpretor v11.33 (firmware)
Electrode material :
Initial state :
Electrolyte :
Comments :
Electrode surface area : 0.001 cm²
Characteristic mass : 0.001 g
Equivalent Weight : 0.000 g/eq.
Density : 0.000 g/cm3
Record Analogic IN 1
Cycle Definition : Charge/Discharge alternance
External device configuration :
   device type : Thermostat
   device name : Other
   Analog OUT :
      mode : E/V
      unit : T/°C
      max : 400.000 at 5.000 V
      min : -100.000 at 0.000 V
      current : 0.000
   Analog IN 1 :
      unit : T/°C
      max : 400.000 at 5.000 V
      min : -100.000 at 0.000 V
Mode                Single sine
E (V)               0.0000
vs.                 Eoc
tE (h:m:s)          0:00:0.0000
record              0
dI                  1.000
unit dI             mA
dt (s)              0.000
fi                  1.000
unit fi             MHz
ff                  1.000
unit ff             Hz
Nd                  20
Points              per decade
spacing             Logarithmic
Va (mV)             128.0
pw                  0.50
Na                  3
corr                0
E range min (V)     -10.000
E range max (V)     10.000
I Range             Auto
Bandwidth           5
nc cycles           0
goto Ns'            0
nr cycles           0
inc. cycle          1

freq/Hz	Re(Z)/Ohm	-Im(Z)/Ohm	|Z|/Ohm	Phase(Z)/deg	time/s	<Ewe>/V	<I>/mA	Cs/µF	Cp/µF	cycle number	I Range	|Ewe|/V	|I|/A	(Q-Qo)/mA.h	Analog OUT/V	Analog IN 1/V	Re(Y)/Ohm-1	Im(Y)/Ohm-1	|Y|/Ohm-1	Phase(Y)/deg	dq/mA.h
1.00002e+06	56.8628	61.6886	83.8979	-47.331	1.85048	-0.0190849	0.00311089	0.00257993	0.00139481	1	11	0.00201692	2.40402e-05	8.07478e-07	0.0000000E+000	-100.054	0.00807841	0.008764	0.0119192	47.331	8.07478e-07
891247	63.9662	58.2042	86.4836	-42.2997	2.44749	-0.0185717	0.00311873	0.00306809	0.00138966	1	11	0.00318985	3.68839e-05	1.32607e-06	0.0000000E+000	-100.07	0.00855231	0.00778193	0.0115629	42.2997	5.18594e-07
794333	70.7636	55.5866	89.9853	-38.1505	3.04349	-0.0181326	0.00305248	0.00360452	0.00137545	1	11	0.00490153	5.44703e-05	1.73535e-06	0.0000000E+000	-100.07	0.0087391	0.00686478	0.0111129	38.1505	4.09279e-07
707950	77.041	53.4354	93.7585	-34.7451	3.63949	-0.0177049	0.00305938	0.00420716	0.00136655	1	11	0.00722892	7.71015e-05	2.20302e-06	0.0000000E+000	-100.086	0.00876397	0.00607866	0.0106657	34.7451	4.67669e-07
630957	83.0681	51.5155	97.7454	-31.8055	4.23449	-0.0172935	0.00325031	0.00489646	0.00136008	1	11	0.0102457	0.00010482	2.71495e-06	0.0000000E+000	-100.062	0.00869445	0.00539194	0.0102307	31.8055	5.11927e-07
562342	88.5466	49.4961	101.441	-29.2045	4.82948	-0.0169776	0.0030648	0.00571805	0.00136132	1	11	0.013974	0.000137755	3.28544e-06	0.0000000E+000	-100.118	0.0086048	0.00480995	0.0098579	29.2045	5.70496e-07
501206	93.6743	47.3902	104.98	-26.835	5.42649	-0.016671	0.00316782	0.00670062	0.00136547	1	11	0.018432	0.000175577	3.74715e-06	0.0000000E+000	-100.054	0.00849985	0.00430011	0.00952567	26.835	4.61708e-07
446686	98.2718	45.1185	108.134	-24.6608	6.02147	-0.0164165	0.00324098	0.00789701	0.00137482	1	11	0.0236152	0.000218387	4.01137e-06	0.0000000E+000	-100.086	0.0084043	0.00385858	0.00924775	24.6608	2.64221e-07
398103	102.469	42.6353	110.985	-22.5913	6.61648	-0.0162726	0.00308403	0.0093768	0.00138378	1	11	0.0295378	0.000266142	4.42848e-06	0.0000000E+000	-100.062	0.00831887	0.00346132	0.00901024	22.5913	4.17105e-07
354810	106.116	39.9857	113.4	-20.6469	7.21149	-0.0161621	0.00307078	0.0112181	0.00139477	1	11	0.0362419	0.000319593	5.16952e-06	0.0000000E+000	-100.078	0.00825196	0.00310942	0.00881835	20.6469	7.41048e-07
316230	109.308	37.3074	115.5	-18.845	7.80749	-0.016097	0.00308981	0.0134903	0.00140751	1	11	0.0438075	0.000379287	6.21409e-06	0.0000000E+000	-100.062	0.00819392	0.00279662	0.00865803	18.845	1.04457e-06
281835	112.018	34.5816	117.234	-17.1562	8.40248	-0.0160657	0.00301983	0.0163298	0.00142089	1	11	0.0522832	0.000445972	5.94371e-06	0.0000000E+000	-100.07	0.00815038	0.00251615	0.00852993	17.1562	-2.70381e-07
251188	114.274	31.9342	118.652	-15.6132	8.99748	-0.0160082	0.00312845	0.0198411	0.00143724	1	11	0.0617244	0.000520215	6.51945e-06	0.0000000E+000	-100.094	0.00811704	0.00226833	0.00842803	15.6132	5.75735e-07
223872	116.105	29.3971	119.769	-14.2084	9.59349	-0.0159808	0.00305884	0.0241833	0.00145693	1	11	0.072135	0.000602284	6.41898e-06	0.0000000E+000	-100.078	0.00809399	0.00204935	0.00834941	14.2084	-1.00466e-07
199544	117.633	27.0662	120.707	-12.9576	10.1905	-0.0159519	0.00302021	0.0294683	0.00148165	1	11	0.0835117	0.000691855	6.9319e-06	0.0000000E+000	-100.142	0.00807357	0.00185764	0.00828452	12.9576	5.12918e-07
177832	118.863	24.9393	121.451	-11.8497	10.7865	-0.0159121	0.0031432	0.0358862	0.00151319	1	11	0.0958192	0.000788955	6.10764e-06	0.0000000E+000	-100.054	0.00805832	0.00169076	0.00823379	11.8497	-8.24262e-07
158486	119.887	23.0276	122.078	-10.8728	11.3825	-0.0158924	0.00304	0.0436095	0.00155168	1	11	0.109025	0.000893073	5.83495e-06	0.0000000E+000	-100.078	0.00804442	0.00154516	0.00819147	10.8728	-2.72685e-07
141256	120.763	21.3413	122.634	-10.0219	11.8415	-0.0158592	0.00326041	0.0527949	0.00159887	1	11	0.123217	0.00100475	6.4636e-06	0.0000000E+000	-100.054	0.00802992	0.00141905	0.00815434	10.0219	6.28652e-07
125909	121.488	19.851	123.099	-9.28009	12.3015	-0.0158546	0.00314638	0.0636766	0.00165591	1	11	0.138425	0.0011245	7.25414e-06	0.0000000E+000	-100.046	0.00801724	0.00131001	0.00812357	9.28009	7.90538e-07
112205	122.104	18.5426	123.504	-8.63486	12.8965	-0.0157455	0.00339964	0.076496	0.0017243	1	11	0.130436	0.00105612	8.41238e-06	0.0000000E+000	-100.038	0.0080051	0.00121564	0.00809688	8.63486	1.15824e-06
100004	122.619	17.4155	123.85	-8.08362	13.4935	-0.0157234	0.00323186	0.0913836	0.00180697	1	11	0.129719	0.00104739	8.50339e-06	0.0000000E+000	-100.054	0.00799409	0.0011354	0.00807432	8.08362	9.10108e-08
89129.3	123.047	16.4445	124.141	-7.61214	14.0885	-0.0156913	0.00309897	0.108587	0.00190542	1	11	0.129452	0.00104278	8.96366e-06	0.0000000E+000	-100.046	0.00798438	0.00106707	0.00805537	7.61214	4.60268e-07
79433.3	123.408	15.6614	124.398	-7.23261	14.6835	-0.0156524	0.00310196	0.127934	0.00202779	1	11	0.129575	0.00104162	1.03505e-05	0.0000000E+000	-100.086	0.00797477	0.00101206	0.00803873	7.23261	1.38687e-06
70795	123.703	15.043	124.614	-6.93347	15.2795	-0.0156414	0.00311316	0.149445	0.00217779	1	11	0.129483	0.00103907	1.24614e-05	0.0000000E+000	-100.078	0.00796607	0.000968722	0.00802475	6.93347	2.1109e-06
63093.8	123.956	14.5822	124.81	-6.70948	15.8765	-0.0156101	0.00321319	0.172986	0.00236132	1	11	0.129449	0.00103716	1.31134e-05	0.0000000E+000	-100.07	0.00795728	0.0009361	0.00801216	6.70948	6.51934e-07
56237	124.171	14.3004	124.992	-6.5696	16.4725	-0.015602	0.00307378	0.197902	0.00259048	1	11	0.129259	0.00103414	1.39668e-05	0.0000000E+000	-100.142	0.00794797	0.000915338	0.0080005	6.5696	8.53455e-07
50122.5	124.371	14.1751	125.177	-6.50216	16.9325	-0.0155966	0.00312286	0.224007	0.00287255	1	11	0.140375	0.00112142	1.40267e-05	0.0000000E+000	-100.086	0.00793733	0.000904648	0.00798871	6.50216	5.988e-08
44666.7	124.541	14.2137	125.349	-6.51092	17.5295	-0.0155571	0.00317867	0.250686	0.00322328	1	11	0.130433	0.00104055	1.29842e-05	0.0000000E+000	-100.054	0.00792625	0.000904612	0.0079777	6.51092	-1.04245e-06
39814.1	124.705	14.4236	125.537	-6.59761	17.9885	-0.0155781	0.0030917	0.277147	0.00365862	1	11	0.139954	0.00111484	1.33998e-05	0.0000000E+000	-100.094	0.00791305	0.000915236	0.0079658	6.59761	4.15527e-07
35481	124.852	14.8053	125.727	-6.76268	18.5845	-0.0155627	0.00303888	0.302976	0.00420129	1	11	0.130123	0.00103496	1.17439e-05	0.0000000E+000	-100.094	0.00789839	0.000936608	0.00795373	6.76268	-1.65592e-06
31621.1	125.015	15.3581	125.955	-7.00369	19.0445	-0.0155507	0.00309692	0.327721	0.00487247	1	11	0.137835	0.00109432	1.29458e-05	0.0000000E+000	-100.078	0.0078801	0.00096807	0.00793934	7.00369	1.2019e-06
28188.1	125.16	16.0864	126.19	-7.32385	19.6405	-0.0155419	0.00306146	0.350992	0.00570379	1	11	0.12966	0.0010275	1.46613e-05	0.0000000E+000	-100.054	0.00785992	0.0010102	0.00792457	7.32385	1.71558e-06
25116.9	125.342	17.0035	126.49	-7.72541	20.1005	-0.0155332	0.00305736	0.372663	0.00673411	1	11	0.135588	0.00107193	1.58973e-05	0.0000000E+000	-100.078	0.00783402	0.00106274	0.00790577	7.72541	1.23593e-06
22389	125.533	18.1129	126.833	-8.21041	20.6955	-0.01553	0.00308367	0.392462	0.00800401	1	11	0.129265	0.00101917	1.54658e-05	0.0000000E+000	-100.046	0.00780357	0.00112596	0.00788438	8.21041	-4.31446e-07
19948.8	125.75	19.4526	127.246	-8.79353	21.1545	-0.0155204	0.00314339	0.410135	0.00958506	1	11	0.133569	0.0010497	1.63582e-05	0.0000000E+000	-100.062	0.00776644	0.00120141	0.00785882	8.79353	8.92398e-07
17786.9	126.012	20.9985	127.75	-9.46076	21.6135	-0.015524	0.00312604	0.426119	0.011513	1	11	0.137287	0.00107465	1.56612e-05	0.0000000E+000	-100.086	0.00772133	0.00128667	0.0078278	9.46076	-6.96977e-07
15847.7	126.301	22.79	128.341	-10.2285	22.0725	-0.0155272	0.00308554	0.440666	0.0138954	1	11	0.140462	0.00109445	1.54889e-05	0.0000000E+000	-100.086	0.00766794	0.00138362	0.00779177	10.2285	-1.72322e-07
14121.9	126.625	24.8461	129.039	-11.1014	22.6675	-0.0155114	0.00313817	0.453597	0.0168167	1	11	0.129519	0.00100372	1.56061e-05	0.0000000E+000	-100.086	0.00760456	0.00149215	0.00774957	11.1014	1.17162e-07
12590.9	127.018	27.1614	129.89	-12.0703	23.1265	-0.0155182	0.00309244	0.465382	0.0203499	1	11	0.131491	0.00101233	1.67101e-05	0.0000000E+000	-100.022	0.00752861	0.00160991	0.00769882	12.0703	1.10404e-06
11217.7	127.474	29.7897	130.909	-13.1535	23.5855	-0.0155131	0.00304914	0.476266	0.0246629	1	11	0.133106	0.00101679	1.72711e-05	0.0000000E+000	-100.134	0.00743849	0.00173832	0.00763891	13.1535	5.61002e-07
10002.2	128.014	32.7311	132.132	-14.3423	24.0455	-0.0155073	0.00309991	0.486141	0.0298308	1	11	0.134388	0.00101707	1.71936e-05	0.0000000E+000	-100.014	0.00733229	0.00187474	0.00756817	14.3423	-7.74852e-08
8914.93	128.632	36.0304	133.583	-15.6478	24.5279	-0.0154872	0.00319192	0.495488	0.0360471	1	11	0.135386	0.0010135	1.71057e-05	0.0000000E+000	-100.062	0.00720855	0.00201915	0.00748599	15.6478	-8.79653e-08
7944	129.365	39.7178	135.325	-17.0676	25.054	-0.0154857	0.00326955	0.504424	0.0434523	1	11	0.136162	0.00100619	1.76062e-05	0.0000000E+000	-100.07	0.00706419	0.00216886	0.00738964	17.0676	5.0052e-07
7082.23	130.202	43.8004	137.372	-18.5931	25.6309	-0.0154766	0.00328766	0.513065	0.0521591	1	11	0.136727	0.0009953	1.73022e-05	0.0000000E+000	-100.062	0.00689955	0.00232103	0.00727949	18.5931	-3.03949e-07
6307.73	131.185	48.3783	139.822	-20.2429	26.2656	-0.0154645	0.00317885	0.52155	0.062438	1	11	0.137149	0.000980884	1.86143e-05	0.0000000E+000	-100.054	0.00671023	0.00247458	0.00715197	20.2429	1.31208e-06
5621.06	132.305	53.4112	142.679	-21.9839	26.9663	-0.0154628	0.00317288	0.530114	0.0742873	1	11	0.137414	0.000963097	1.86988e-05	0.0000000E+000	-100.062	0.00649913	0.00262369	0.00700874	21.9839	8.44668e-08
5011.6	133.597	58.9443	146.023	-23.8075	27.7267	-0.0154732	0.00307919	0.538768	0.0877899	1	11	0.13757	0.000942117	1.99463e-05	0.0000000E+000	-100.078	0.00626551	0.0027644	0.00684825	23.8075	1.24751e-06
4466.43	135.086	65.0542	149.934	-25.7143	28.4867	-0.0154532	0.0031949	0.547753	0.103117	1	11	0.137642	0.000918017	2.0495e-05	0.0000000E+000	-100.086	0.00600908	0.00289383	0.00666958	25.7143	5.48708e-07
3981.27	136.802	71.7742	154.487	-27.6841	29.2467	-0.0154646	0.00308311	0.556967	0.120221	1	11	0.137639	0.000890939	2.19111e-05	0.0000000E+000	-100.046	0.00573201	0.00300734	0.00647302	27.6841	1.41603e-06
3546.6	138.768	79.1987	159.778	-29.7145	30.007	-0.0154716	0.00306967	0.566618	0.139217	1	11	0.137574	0.000861034	2.30106e-05	0.0000000E+000	-100.086	0.0054357	0.00310229	0.00625867	29.7145	1.09955e-06
3161.01	141.017	87.3031	165.854	-31.7614	30.7667	-0.0154593	0.00313331	0.576719	0.159797	1	11	0.137474	0.000828882	2.4162e-05	0.0000000E+000	-100.086	0.00512646	0.00317377	0.00602938	31.7614	1.15142e-06
2817.3	143.569	96.1731	172.804	-33.8171	31.5269	-0.0154668	0.00308647	0.5874	0.181942	1	11	0.137344	0.000794797	2.53511e-05	0.0000000E+000	-100.086	0.00480786	0.00322067	0.0057869	33.8171	1.18904e-06
2510.8	146.453	105.876	180.716	-35.8645	32.2867	-0.0154638	0.00305287	0.598698	0.2055	1	11	0.1372	0.000759199	2.5481e-05	0.0000000E+000	-100.102	0.0044844	0.00324194	0.00553354	35.8645	1.29947e-07
2237.85	149.688	116.465	189.659	-37.8847	33.047	-0.0154683	0.00303645	0.610652	0.230269	1	11	0.137037	0.000722542	2.54662e-05	0.0000000E+000	-100.078	0.0041614	0.00323777	0.00527261	37.8847	-1.47942e-08
1995.64	153.317	127.972	199.707	-39.8513	33.8067	-0.0154637	0.0030999	0.623194	0.255897	1	11	0.136877	0.000685388	2.66731e-05	0.0000000E+000	-100.038	0.00384418	0.00320869	0.00500733	39.8513	1.20686e-06
1778.29	157.363	140.615	211.035	-41.7831	34.5669	-0.0154697	0.00307657	0.63648	0.282579	1	11	0.13672	0.000647855	2.71324e-05	0.0000000E+000	-100.038	0.00353341	0.00315736	0.00473855	41.7831	4.5931e-07
1585.51	161.846	154.317	223.625	-43.6358	35.3267	-0.0154575	0.00319657	0.650484	0.309761	1	11	0.136573	0.000610724	2.72919e-05	0.0000000E+000	-100.142	0.0032364	0.00308585	0.00447177	43.6358	1.59473e-07
1411.84	166.878	169.472	237.842	-45.4419	36.0882	-0.0154589	0.00312733	0.665178	0.337719	1	11	0.136437	0.000573646	2.77799e-05	0.0000000E+000	-100.086	0.00294999	0.00299585	0.00420447	45.4419	4.88031e-07
1258.79	172.332	185.763	253.389	-47.148	36.8479	-0.0154637	0.00308123	0.680623	0.365805	1	11	0.136306	0.00053793	2.79697e-05	0.0000000E+000	-100.094	0.00268404	0.00289323	0.0039465	47.148	1.89789e-07
1121.79	178.377	203.624	270.704	-48.7812	37.6064	-0.0154704	0.00308123	0.696753	0.394225	1	11	0.136191	0.000503098	2.89689e-05	0.0000000E+000	-100.086	0.00243415	0.00277867	0.00369407	48.7812	9.99206e-07
1000.32	184.948	223.01	289.723	-50.3302	38.3657	-0.0154707	0.00305062	0.713437	0.422707	1	11	0.13609	0.000469725	2.94385e-05	0.0000000E+000	-100.07	0.00220335	0.0026568	0.00345157	50.3302	4.69579e-07
891.427	192.19	244.232	310.783	-51.8003	39.1244	-0.0154579	0.00314077	0.731024	0.451463	1	11	0.135997	0.000437595	2.9923e-05	0.0000000E+000	-100.11	0.00198983	0.00252864	0.00321768	51.8003	4.84529e-07
794.238	200.138	267.555	334.127	-53.2025	40.135	-0.0154734	0.00124076	0.748957	0.480241	1	12	0.140045	0.000419138	3.0668e-05	0.0000000E+000	-100.062	0.0017927	0.00239657	0.00299287	53.2025	7.45045e-07
707.509	208.809	293.002	359.793	-54.5243	40.8974	-0.0154686	0.00122066	0.767747	0.509158	1	12	0.139326	0.000387239	3.09804e-05	0.0000000E+000	-100.062	0.00161303	0.00226342	0.00277938	54.5243	3.1241e-07
631.01	218.099	320.512	387.68	-55.7658	41.6554	-0.0154623	0.00121099	0.786936	0.537877	1	12	0.138708	0.00035779	3.12879e-05	0.0000000E+000	-100.086	0.00145114	0.00213255	0.00257945	55.7658	3.07485e-07
562.339	228.245	350.781	418.501	-56.949	42.4119	-0.0154594	0.00121943	0.806836	0.566846	1	12	0.138178	0.000330173	3.18383e-05	0.0000000E+000	-100.07	0.00130319	0.00200283	0.00238948	56.949	5.50392e-07
501.444	239.2	383.733	452.181	-58.0626	43.1692	-0.0154718	0.00124186	0.82712	0.595665	1	12	0.13773	0.000304589	3.19344e-05	0.0000000E+000	-100.102	0.00116987	0.00187674	0.0022115	58.0626	9.60633e-08
446.859	251.138	419.941	489.306	-59.1192	43.9259	-0.0154667	0.00124333	0.848129	0.624707	1	12	0.137342	0.000280687	3.24561e-05	0.0000000E+000	-100.086	0.00104894	0.00175399	0.00204371	59.1192	5.21746e-07
398.089	264.086	459.762	530.21	-60.127	44.6887	-0.0154663	0.00123219	0.869575	0.653849	1	12	0.137035	0.000258455	3.26669e-05	0.0000000E+000	-100.054	0.0009394	0.00163545	0.00188605	60.127	2.10727e-07
354.66	277.968	503.362	575.013	-61.0915	45.4489	-0.0154686	0.00125039	0.891514	0.683178	1	12	0.136767	0.00023785	3.30811e-05	0.0000000E+000	-100.102	0.000840698	0.00152239	0.00173909	61.0915	4.14208e-07
316.316	292.921	550.695	623.753	-61.9909	46.2059	-0.0154641	0.00123189	0.913667	0.712172	1	12	0.136547	0.000218911	3.31483e-05	0.0000000E+000	-100.046	0.00075288	0.00141542	0.0016032	61.9909	6.71999e-08
281.894	309.049	603.008	677.591	-62.8643	46.9614	-0.0154652	0.00123256	0.936291	0.741518	1	12	0.136362	0.000201245	3.35202e-05	0.0000000E+000	-100.054	0.000673119	0.00131337	0.00147582	62.8643	3.71968e-07
251.044	326.571	660.733	737.033	-63.6989	47.7179	-0.0154686	0.00122719	0.959496	0.771121	1	12	0.136206	0.000184804	3.36406e-05	0.0000000E+000	-100.078	0.000601179	0.00121633	0.00135679	63.6989	1.2039e-07
223.925	345.173	723.281	801.423	-64.488	48.4807	-0.0154657	0.00122702	0.982676	0.800387	1	12	0.136082	0.000169801	3.37736e-05	0.0000000E+000	-100.038	0.000537419	0.00112612	0.00124778	64.488	1.32943e-07
199.553	365.296	792.561	872.694	-65.2547	49.2422	-0.0154621	0.00124482	1.0063	0.829986	1	12	0.135976	0.000155812	3.38665e-05	0.0000000E+000	-100.086	0.000479647	0.00104066	0.00114588	65.2547	9.28836e-08
177.781	386.878	869.007	951.235	-66.0016	50.0102	-0.0154724	0.00123329	1.03017	0.859769	1	12	0.135885	0.000142851	3.41034e-05	0.0000000E+000	-100.062	0.000427562	0.00096039	0.00105126	66.0016	2.36992e-07
158.428	410.076	952.994	1037.48	-66.7177	50.7768	-0.0154607	0.00124286	1.05414	0.889447	1	12	0.135814	0.000130908	3.43885e-05	0.0000000E+000	-100.07	0.000380984	0.000885386	0.000963876	66.7177	2.85041e-07
141.311	434.546	1044.71	1131.48	-67.4152	51.5299	-0.0154759	0.00124911	1.07807	0.919061	1	12	0.135755	0.00011998	3.46862e-05	0.0000000E+000	-100.03	0.000339422	0.00081602	0.000883797	67.4152	2.97741e-07
125.846	461.301	1147.14	1236.42	-68.0934	52.2854	-0.0154709	0.00124002	1.10247	0.949004	1	12	0.135705	0.000109757	3.48991e-05	0.0000000E+000	-100.094	0.000301755	0.000750389	0.000808789	68.0934	2.12855e-07
112.19	489.774	1259.31	1351.2	-68.7478	53.0309	-0.0154666	0.0012342	1.12651	0.978499	1	12	0.135667	0.000100405	3.50729e-05	0.0000000E+000	-100.094	0.000268261	0.000689754	0.000740085	68.7478	1.7385e-07
100.032	520.294	1382.95	1477.58	-69.3826	53.7907	-0.0154636	0.00125884	1.15047	1.00782	1	12	0.135632	9.17935e-05	3.52851e-05	0.0000000E+000	-100.078	0.000238312	0.000633436	0.000676782	69.3826	2.12131e-07
89.116	552.696	1520.29	1617.64	-70.0215	54.5577	-0.0154658	0.00123687	1.17473	1.03759	1	12	0.1356	8.38259e-05	3.55583e-05	0.0000000E+000	-100.062	0.000211214	0.000580982	0.000618184	70.0215	2.73266e-07
79.4155	587.795	1670.95	1771.32	-70.6195	55.3222	-0.0154665	0.00123435	1.19937	1.06729	1	12	0.135581	7.65424e-05	3.58086e-05	0.0000000E+000	-100.094	0.000187341	0.000532561	0.000564551	70.6195	2.50265e-07
70.8387	624.28	1837.05	1940.22	-71.2308	56.0734	-0.0154662	0.00123911	1.22301	1.09639	1	12	0.135559	6.98677e-05	3.60884e-05	0.0000000E+000	-100.078	0.000165835	0.000487997	0.000515405	71.2308	2.79846e-07
63.0823	664.227	2023.2	2129.44	-71.8247	56.8538	-0.0154674	0.00124407	1.24702	1.12569	1	12	0.135546	6.36532e-05	3.63365e-05	0.0000000E+000	-100.054	0.000146482	0.000446176	0.000469607	71.8247	2.48025e-07
56.2418	708.015	2228.47	2338.24	-72.3743	57.5983	-0.0154603	0.00124825	1.26985	1.15343	1	12	0.135538	5.79657e-05	3.66399e-05	0.0000000E+000	-100.11	0.000129498	0.000407595	0.000427672	72.3743	3.0342e-07
50.1444	753.922	2455.31	2568.45	-72.9305	58.3552	-0.015465	0.00123646	1.29268	1.1813	1	12	0.13553	5.27672e-05	3.69353e-05	0.0000000E+000	-100.086	0.000114283	0.000372189	0.000389339	72.9305	2.9539e-07
44.6712	804.042	2708.12	2824.96	-73.4638	59.3712	-0.0154629	0.00106289	1.3156	1.20903	1	13	0.135842	4.80864e-05	3.71582e-05	0.0000000E+000	-100.118	0.000100752	0.000339346	0.000353987	73.4638	2.22917e-07
39.8089	857.352	2988.08	3108.65	-73.9906	60.1337	-0.0154618	0.00106291	1.33797	1.2362	1	13	0.135775	4.36765e-05	3.74433e-05	0.0000000E+000	-100.086	8.87189e-05	0.000309207	0.000321683	73.9906	2.85142e-07
35.4653	915.439	3299.35	3423.99	-74.4928	60.8841	-0.0154644	0.00105767	1.36015	1.26293	1	13	0.135715	3.96364e-05	3.75835e-05	0.0000000E+000	-100.102	7.80843e-05	0.000281425	0.000292057	74.4928	1.4015e-07
31.6296	977.818	3641.55	3770.54	-74.9696	61.6085	-0.0154614	0.00105662	1.38179	1.28886	1	13	0.135672	3.59819e-05	3.77628e-05	0.0000000E+000	-100.094	6.87781e-05	0.00025614	0.000265214	74.9696	1.79352e-07
28.1701	1045.87	4026.4	4160.01	-75.4391	62.4138	-0.0154617	0.00105997	1.40319	1.3145	1	13	0.135636	3.26046e-05	3.80486e-05	0.0000000E+000	-100.038	6.04347e-05	0.000232663	0.000240384	75.4391	2.85745e-07
25.1044	1119.96	4451.88	4590.59	-75.8791	63.1699	-0.0154618	0.00104766	1.42405	1.33929	1	13	0.135607	2.95401e-05	3.82888e-05	0.0000000E+000	-100.094	5.31453e-05	0.000211255	0.000217837	75.8791	2.40219e-07
22.3854	1199.8	4921.78	5065.91	-76.3	63.8564	-0.0154698	0.00104928	1.44455	1.36352	1	13	0.135581	2.67633e-05	3.84547e-05	0.0000000E+000	-100.094	4.67512e-05	0.000191782	0.000197398	76.3	1.65885e-07
19.9553	1287.69	5445.1	5595.29	-76.6948	64.6182	-0.0154666	0.00104878	1.46473	1.38715	1	13	0.135566	2.42286e-05	3.87177e-05	0.0000000E+000	-100.102	4.11308e-05	0.000173925	0.000178722	76.6948	2.63039e-07
17.7961	1382.17	6024.82	6181.33	-77.0792	65.4625	-0.0154701	0.00105645	1.4844	1.41018	1	13	0.135547	2.19285e-05	3.89585e-05	0.0000000E+000	-100.062	3.6174e-05	0.000157681	0.000161778	77.0792	2.40814e-07
15.8576	1487.79	6673.69	6837.52	-77.4323	66.1849	-0.0154687	0.00105141	1.50389	1.43269	1	13	0.135531	1.98217e-05	3.91113e-05	0.0000000E+000	-100.062	3.18233e-05	0.000142748	0.000146252	77.4323	1.52728e-07
14.119	1606.63	7398.72	7571.15	-77.7484	66.9873	-0.0154688	0.00105173	1.52356	1.45496	1	13	0.135523	1.78999e-05	3.93406e-05	0.0000000E+000	-100.07	2.80281e-05	0.000129072	0.00013208	77.7484	2.29338e-07
12.6008	1733.39	8189.53	8370.96	-78.0492	67.8778	-0.0154674	0.00105345	1.54228	1.47615	1	13	0.135514	1.61886e-05	3.96594e-05	0.0000000E+000	-100.03	2.47369e-05	0.000116871	0.000119461	78.0492	3.1877e-07
11.2249	1875.02	9082.48	9274	-78.3355	68.5619	-0.0154672	0.00104897	1.56112	1.4973	1	13	0.13551	1.46118e-05	3.97635e-05	0.0000000E+000	-100.07	2.18008e-05	0.000105601	0.000107828	78.3355	1.04129e-07
10.0032	2037.64	10064.4	10268.6	-78.5546	69.3227	-0.015467	0.00105021	1.58086	1.51861	1	13	0.1355	1.31956e-05	4.00611e-05	0.0000000E+000	-100.07	1.93244e-05	9.54479e-05	9.73844e-05	78.5546	2.97596e-07
8.91838	2216.27	11162.7	11380.6	-78.7703	70.167	-0.0154643	0.00103937	1.5987	1.53807	1	13	0.135497	1.1906e-05	4.02643e-05	0.0000000E+000	-100.038	1.71118e-05	8.61868e-05	8.78691e-05	78.7703	2.03224e-07
7.93953	2420.96	12398.8	12633	-78.9516	71.1057	-0.0154595	0.00104038	1.61676	1.55738	1	13	0.135494	1.07254e-05	4.05808e-05	0.0000000E+000	-100.078	1.51696e-05	7.76908e-05	7.91579e-05	78.9516	3.16456e-07
7.07654	2650.1	13749	14002.1	-79.0901	71.664	-0.0154659	0.00104424	1.63579	1.5772	1	13	0.135491	9.67649e-06	4.07547e-05	0.0000000E+000	-100.078	1.35169e-05	7.01273e-05	7.14181e-05	79.0901	1.73908e-07
6.31058	2897.98	15284.2	15556.5	-79.2638	72.2842	-0.0154637	0.00104037	1.65009	1.59283	1	13	0.135493	8.70973e-06	4.09605e-05	0.0000000E+000	-100.022	1.19749e-05	6.31567e-05	6.42819e-05	79.2638	2.05802e-07
5.6205	3197.01	16969	17267.6	-79.3304	72.9707	-0.0154632	0.00101845	1.66874	1.61153	1	13	0.135488	7.84638e-06	4.11497e-05	0.0000000E+000	-100.062	1.07221e-05	5.69108e-05	5.7912e-05	79.3304	1.89244e-07
5.01444	3580.55	18791.2	19129.3	-79.212	73.7282	-0.0154456	0.00101913	1.68905	1.62988	1	13	0.135481	7.08237e-06	4.12958e-05	0.0000000E+000	-100.078	9.7848e-06	5.1352e-05	5.22759e-05	79.212	1.46096e-07
4.46939	3868.45	20848	21203.9	-79.4881	74.5695	-0.0154652	0.00105222	1.70807	1.65122	1	13	0.135487	6.38974e-06	4.14896e-05	0.0000000E+000	-100.094	8.6041e-06	4.63696e-05	4.71611e-05	79.4881	1.93743e-07
3.97785	4329.42	23115.6	23517.5	-79.3917	75.5062	-0.0154622	0.00105816	1.73088	1.67222	1	13	0.135484	5.76098e-06	4.18449e-05	0.0000000E+000	-100.022	7.82795e-06	4.17948e-05	4.25215e-05	79.3917	3.55289e-07
3.55114	4757.1	25606.3	26044.5	-79.4757	76.5474	-0.0154595	0.00103472	1.75027	1.69188	1	13	0.135489	5.20221e-06	4.2183e-05	0.0000000E+000	-100.062	7.01314e-06	3.775e-05	3.83959e-05	79.4757	3.38136e-07
3.1604	5330.46	28392.3	28888.3	-79.3669	77.7092	-0.0154563	0.00104235	1.77369	1.7133	1	13	0.13548	4.68979e-06	4.24051e-05	0.0000000E+000	-100.054	6.38735e-06	3.40217e-05	3.46161e-05	79.3669	2.22073e-07
2.81836	5944.86	31488.8	32045	-79.3088	79.0046	-0.0154587	0.00104902	1.79336	1.73164	1	13	0.135483	4.22789e-06	4.28446e-05	0.0000000E+000	-100.03	5.78923e-06	3.06644e-05	3.12061e-05	79.3088	4.39514e-07
2.51367	6583.9	34884.2	35500	-79.312	80.8947	-0.0154548	0.00101887	1.81503	1.7526	1	14	0.135496	3.81677e-06	4.34107e-05	0.0000000E+000	-100.086	5.22427e-06	2.76803e-05	2.8169e-05	79.312	5.66066e-07
2.23982	7424.27	38658.1	39364.5	-79.1287	82.5094	-0.0154582	0.00101727	1.83809	1.77271	1	14	0.135496	3.44207e-06	4.37466e-05	0.0000000E+000	-100.062	4.7912e-06	2.49477e-05	2.54036e-05	79.1287	3.35953e-07
1.99706	8339.25	42904.6	43707.6	-79.0007	84.3137	-0.015458	0.00102104	1.85748	1.78986	1	14	0.135491	3.09995e-06	4.43227e-05	0.0000000E+000	-100.102	4.3653e-06	2.2459e-05	2.28793e-05	79.0007	5.76146e-07
1.77961	9276.43	47488.9	48386.5	-78.9471	86.3318	-0.0154558	0.00101151	1.88322	1.81401	1	14	0.13549	2.80016e-06	4.49012e-05	0.0000000E+000	-100.062	3.96217e-06	2.02836e-05	2.06669e-05	78.9471	5.7848e-07
1.58469	10416.9	52656.8	53677.3	-78.8098	88.591	-0.015455	0.00101487	1.90732	1.83548	1	14	0.13549	2.52416e-06	4.54559e-05	0.0000000E+000	-100.086	3.61542e-06	1.82757e-05	1.86298e-05	78.8098	5.54639e-07
1.41224	11744	58235.1	59407.4	-78.5983	91.1201	-0.0154536	0.00100625	1.93521	1.85958	1	14	0.135487	2.28064e-06	4.62889e-05	0.0000000E+000	-100.078	3.32763e-06	1.65007e-05	1.68329e-05	78.5983	8.33031e-07
1.25967	13266.9	64364.2	65717.3	-78.3531	93.9471	-0.0154621	0.0010098	1.96299	1.88299	1	14	0.135484	2.06162e-06	4.69375e-05	0.0000000E+000	-100.046	3.07194e-06	1.49034e-05	1.52167e-05	78.3531	6.48587e-07
1.12249	14926.5	71110	72659.7	-78.1453	97.115	-0.0154612	0.00102835	1.99392	1.90978	1	14	0.135484	1.86464e-06	4.79731e-05	0.0000000E+000	-100.11	2.82728e-06	1.34693e-05	1.37628e-05	78.1453	1.03563e-06
1.00006	16974.1	78727.2	80536.3	-77.8329	100.664	-0.0154555	0.00101718	2.02147	1.93167	1	14	0.135486	1.6823e-06	4.8862e-05	0.0000000E+000	-100.054	2.617e-06	1.21378e-05	1.24168e-05	77.8329	8.88843e-07