File: data/DE_40_9_60.mpt
EC-Lab ASCII FILE
Nb header lines : 75

Potentio Electrochemical Impedance Spectroscopy

Run on channel : 1 (SN 20909)
User :
CE vs. WE compliance from -10 V to 10 V
Electrode connection : standard
Ewe ctrl range : min = -10.00 V, max = 10.00 V
Safety Limits :
	Do not start on E overload
Acquisition started on : 01/24/2020 09:54:50
Technique started on : 01/24/2020 09:54:51
Saved on :
	File : DE_40_9_60.mpr
	Directory : P:\Chemistry\Data\VMP3\Kyler\DOE\DE_40\2ND 60C\
	Host : 10.0.4.99
Device : VMP3 (SN 0183)
Address : USB
EC-Lab for windows v11.33 (software)
Internet server v11.32 (firmware)
Command interpretor v11.33 (firmware)
Electrode material :
Initial state :
Electrolyte :
Comments :
Electrode surface area : 0.001 cm²
Characteristic mass : 0.001 g
Equivalent Weight : 0.000 g/eq.
Density : 0.000 g/cm3
Record Analogic IN 1
Cycle Definition : Charge/Discharge alternance
External device configuration :
   device type : Thermostat
   device name : Other
   Analog OUT :
      mode : E/V
      unit : T/°C
      max : 400.000 at 5.000 V
      min : -100.000 at 0.000 V
      current : 0.000
   Analog IN 1 :
      unit : T/°C
      max : 400.000 at 5.000 V
      min : -100.000 at 0.000 V
Mode                Single sine
E (V)               0.0000
vs.                 Eoc
tE (h:m:s)          0:00:0.0000
record              0
dI                  1.000
unit dI             mA
dt (s)              0.000
fi                  1.000
unit fi             MHz
ff                  1.000
unit ff             Hz
Nd                  20
Points              per decade
spacing             Logarithmic
Va (mV)             128.0
pw                  0.50
Na                  3
corr                0
E range min (V)     -10.000
E range max (V)     10.000
I Range             Auto
Bandwidth           5
nc cycles           0
goto Ns'            0
nr cycles           0
inc. cycle          1

freq/Hz	Re(Z)/Ohm	-Im(Z)/Ohm	|Z|/Ohm	Phase(Z)/deg	time/s	<Ewe>/V	<I>/mA	Cs/µF	Cp/µF	cycle number	I Range	|Ewe|/V	|I|/A	(Q-Qo)/mA.h	Analog OUT/V	Analog IN 1/V	Re(Y)/Ohm-1	Im(Y)/Ohm-1	|Y|/Ohm-1	Phase(Y)/deg	dq/mA.h
1.00002e+06	61.5018	71.066	93.9832	-49.1265	1.95249	0.0363324	0.00308159	0.0022395	0.00128048	1	11	0.00222724	2.36982e-05	8.06476e-07	0.0000000E+000	-100.07	0.00696285	0.00804565	0.0106402	49.1265	8.06476e-07
891247	69.8443	68.4546	97.797	-44.4243	2.54849	0.0368511	0.00312844	0.00260867	0.00127813	1	11	0.00353678	3.61645e-05	1.28557e-06	0.0000000E+000	-100.086	0.00730263	0.00715734	0.0102253	44.4243	4.79092e-07
794333	77.9244	66.219	102.26	-40.3574	3.14449	0.0372927	0.00310903	0.00302577	0.00126878	1	11	0.00542447	5.30457e-05	1.89176e-06	0.0000000E+000	-100.046	0.00745177	0.0063324	0.00977897	40.3574	6.06196e-07
707950	85.496	64.2848	106.968	-36.9397	3.7395	0.0377191	0.00314318	0.00349711	0.00126305	1	11	0.00798006	7.46025e-05	2.362e-06	0.0000000E+000	-100.11	0.00747205	0.00561827	0.00934861	36.9397	4.70233e-07
630957	92.8518	62.4599	111.905	-33.9281	4.33549	0.0381068	0.00310511	0.00403849	0.00125813	1	11	0.0112832	0.000100829	2.89631e-06	0.0000000E+000	-100.102	0.00741468	0.00498773	0.00893616	33.9281	5.34315e-07
562342	99.6602	60.5532	116.614	-31.2827	4.93148	0.0384446	0.00306386	0.00467393	0.00126024	1	11	0.0153411	0.000131555	3.2394e-06	0.0000000E+000	-100.11	0.00732858	0.00445282	0.00857529	31.2827	3.43091e-07
501206	106.125	58.3672	121.116	-28.8102	5.52849	0.0387409	0.00317958	0.00544045	0.00126348	1	11	0.0201722	0.000166552	3.51667e-06	0.0000000E+000	-100.086	0.00723454	0.0039789	0.00825652	28.8102	2.77271e-07
446686	112.025	55.8975	125.196	-26.518	6.12449	0.0389952	0.00319918	0.0063742	0.00127066	1	11	0.0257598	0.000205756	3.80702e-06	0.0000000E+000	-100.078	0.00714714	0.00356624	0.00798746	26.518	2.90343e-07
398103	117.376	52.9914	128.784	-24.2975	6.71949	0.0391508	0.00317846	0.0075443	0.00127734	1	11	0.0321234	0.000249437	4.64471e-06	0.0000000E+000	-100.054	0.00707713	0.00319508	0.00776494	24.2975	8.37692e-07
354810	122.114	49.8311	131.89	-22.1988	7.31548	0.0392462	0.00307507	0.00900169	0.00128499	1	11	0.0393054	0.000298016	5.81512e-06	0.0000000E+000	-100.086	0.00702006	0.00286467	0.00758206	22.1988	1.17042e-06
316230	126.258	46.5796	134.577	-20.2502	7.9115	0.039322	0.0030984	0.0108049	0.00129442	1	11	0.047385	0.000352105	6.01349e-06	0.0000000E+000	-100.062	0.00697142	0.00257192	0.00743071	20.2502	1.98369e-07
281835	129.783	43.2529	136.801	-18.4317	8.50749	0.0393651	0.00315868	0.013056	0.00130516	1	11	0.0564144	0.000412384	6.26961e-06	0.0000000E+000	-100.118	0.00693491	0.0023112	0.0073099	18.4317	2.56117e-07
251188	132.753	39.9626	138.637	-16.7534	9.10249	0.0394139	0.00321486	0.0158551	0.0013174	1	11	0.066454	0.000479337	6.9309e-06	0.0000000E+000	-100.062	0.00690691	0.00207919	0.00721307	16.7534	6.61292e-07
223872	135.182	36.8098	140.104	-15.2322	9.69849	0.0394249	0.00301572	0.0193133	0.00133315	1	11	0.0774869	0.000553065	8.24114e-06	0.0000000E+000	-100.078	0.00688679	0.00187525	0.00713753	15.2322	1.31024e-06
199544	137.158	33.8585	141.275	-13.8667	10.2955	0.0394759	0.00315981	0.0235567	0.00135306	1	11	0.0895382	0.000633785	8.51747e-06	0.0000000E+000	-100.094	0.00687208	0.00169642	0.00707837	13.8667	2.76328e-07
177832	138.782	31.1816	142.242	-12.663	10.8915	0.0394924	0.00310345	0.028702	0.00137929	1	11	0.102574	0.000721125	1.00739e-05	0.0000000E+000	-100.07	0.00685928	0.00154115	0.00703029	12.663	1.55647e-06
158486	140.124	28.7659	143.046	-11.601	11.3515	0.0395479	0.00316784	0.0349101	0.00141174	1	11	0.116548	0.000814756	9.97823e-06	0.0000000E+000	-100.078	0.00684794	0.0014058	0.00699075	11.601	-9.57099e-08
141256	141.25	26.6208	143.737	-10.6731	11.8115	0.0395533	0.00314955	0.0423245	0.00145177	1	11	0.131529	0.000915065	1.02617e-05	0.0000000E+000	-100.062	0.00683679	0.0012885	0.00695715	10.6731	2.83425e-07
125909	142.18	24.7163	144.312	-9.86164	12.4085	0.0396154	0.00315123	0.0511422	0.00150017	1	11	0.129467	0.000897131	1.07605e-05	0.0000000E+000	-100.07	0.00682704	0.0011868	0.00692943	9.86164	4.98873e-07
112205	142.949	23.0562	144.796	-9.16233	13.0045	0.0396457	0.00294892	0.0615205	0.00155985	1	11	0.129701	0.000895752	1.14614e-05	0.0000000E+000	-100.078	0.00681814	0.0010997	0.00690626	9.16233	7.00914e-07
100004	143.603	21.6184	145.221	-8.56117	13.6005	0.0397062	0.00310047	0.0736174	0.00163142	1	11	0.129617	0.000892545	1.21816e-05	0.0000000E+000	-100.078	0.00680931	0.00102509	0.00688604	8.56117	7.20109e-07
89129.3	144.14	20.3952	145.575	-8.05367	14.1965	0.0397531	0.00319248	0.0875532	0.00171851	1	11	0.129622	0.00089041	1.43944e-05	0.0000000E+000	-100.046	0.00680155	0.000962393	0.0068693	8.05367	2.21284e-06
79433.3	144.588	19.3972	145.883	-7.64091	14.7915	0.0397853	0.00323409	0.103295	0.00182619	1	11	0.129604	0.000888407	1.52657e-05	0.0000000E+000	-100.086	0.00679394	0.000911443	0.0068548	7.64091	8.71292e-07
70795	144.955	18.61	146.145	-7.31586	15.3865	0.0398028	0.00319416	0.120801	0.00195882	1	11	0.129408	0.000885474	1.4848e-05	0.0000000E+000	-100.07	0.00678681	0.00087132	0.00684252	7.31586	-4.17661e-07
63093.8	145.257	18.0386	146.373	-7.07899	15.9825	0.0398195	0.00316821	0.13984	0.00212381	1	11	0.129375	0.000883876	1.48661e-05	0.0000000E+000	-100.07	0.0067798	0.000841944	0.00683188	7.07899	1.80281e-08
56237	145.527	17.6581	146.594	-6.91843	16.5795	0.0398356	0.00315552	0.16027	0.00232547	1	11	0.129247	0.000881666	1.68356e-05	0.0000000E+000	-100.078	0.00677189	0.000821699	0.00682156	6.91843	1.96955e-06
50122.5	145.766	17.4928	146.812	-6.8431	17.0395	0.0398377	0.00315664	0.181522	0.00257705	1	11	0.139862	0.000952658	1.75959e-05	0.0000000E+000	-100.118	0.0067629	0.000811588	0.00681143	6.8431	7.60338e-07
44666.7	145.949	17.5319	146.999	-6.84974	17.6345	0.0398736	0.00323913	0.203239	0.00289094	1	11	0.130272	0.00088621	1.68139e-05	0.0000000E+000	-100.094	0.00675423	0.00081134	0.00680278	6.84974	-7.82009e-07
39814.1	146.146	17.7922	147.225	-6.94116	18.0945	0.0398666	0.00323055	0.224675	0.00328132	1	11	0.139226	0.000945668	1.71732e-05	0.0000000E+000	-100.062	0.00674254	0.000820853	0.00679232	6.94116	3.59232e-07
35481	146.297	18.2504	147.431	-7.11087	18.6905	0.0398675	0.00307546	0.245783	0.00376635	1	11	0.12996	0.000881502	1.91173e-05	0.0000000E+000	-100.07	0.00673067	0.000839646	0.00678285	7.11087	1.94416e-06
31621.1	146.456	18.9403	147.676	-7.36882	19.1495	0.0398707	0.00315496	0.26574	0.00437131	1	11	0.137082	0.000928267	2.02018e-05	0.0000000E+000	-100.094	0.00671568	0.000868498	0.0067716	7.36882	1.08446e-06
28188.1	146.613	19.8475	147.95	-7.70948	19.7465	0.0398907	0.00317064	0.284478	0.00511954	1	11	0.129545	0.000875601	1.98935e-05	0.0000000E+000	-100.078	0.00669795	0.000906726	0.00675904	7.70948	-3.08268e-07
25116.9	146.789	20.9999	148.284	-8.14156	20.2065	0.0399005	0.00317643	0.301743	0.00605177	1	11	0.134931	0.000909949	2.11988e-05	0.0000000E+000	-100.038	0.00667585	0.000955055	0.00674382	8.14156	1.30526e-06
22389	146.979	22.4002	148.676	-8.66543	20.6665	0.0398817	0.00314657	0.317346	0.00720368	1	11	0.139707	0.000939675	2.22496e-05	0.0000000E+000	-100.094	0.00664925	0.00101337	0.00672603	8.66543	1.05078e-06
19948.8	147.154	24.0709	149.11	-9.28996	21.2635	0.0399108	0.00321786	0.331444	0.00863741	1	11	0.12961	0.000869222	2.26347e-05	0.0000000E+000	-100.078	0.0066185	0.00108263	0.00670646	9.28996	3.85136e-07
17786.9	147.368	26.0249	149.648	-10.0151	21.7235	0.0399019	0.00317288	0.34382	0.0103984	1	11	0.132817	0.000887529	2.24886e-05	0.0000000E+000	-100.078	0.00658052	0.00116211	0.00668235	10.0151	-1.46134e-07
15847.7	147.634	28.2946	150.321	-10.8494	22.1835	0.0399119	0.00324753	0.354936	0.0125753	1	11	0.13555	0.000901737	2.23192e-05	0.0000000E+000	-100.078	0.00653353	0.00125218	0.00665244	10.8494	-1.69315e-07
14121.9	147.917	30.9109	151.112	-11.8035	22.6425	0.0399097	0.00322607	0.3646	0.015256	1	11	0.137825	0.00091207	2.27841e-05	0.0000000E+000	-100.086	0.00647768	0.00135367	0.00661762	11.8035	4.64849e-07
12590.9	148.241	33.8703	152.061	-12.8701	23.1025	0.0399071	0.00316336	0.373202	0.0185159	1	11	0.139682	0.00091859	2.37728e-05	0.0000000E+000	-100.086	0.00641109	0.00146481	0.0065763	12.8701	9.88695e-07
11217.7	148.622	37.2517	153.22	-14.0711	23.6985	0.0399186	0.00317904	0.380864	0.022513	1	11	0.129314	0.000843977	2.61057e-05	0.0000000E+000	-100.11	0.00633075	0.00158678	0.00652658	14.0711	2.3329e-06
10002.2	149.051	41.0478	154.6	-15.3973	24.1585	0.0399188	0.00320815	0.387644	0.0273273	1	11	0.130395	0.000843439	2.67796e-05	0.0000000E+000	-100.054	0.00623616	0.00171741	0.00646832	15.3973	6.73895e-07
8914.93	149.571	45.3279	156.288	-16.8596	24.6409	0.0399351	0.00325966	0.393855	0.0331296	1	11	0.131265	0.000839893	2.71529e-05	0.0000000E+000	-100.054	0.00612342	0.00185573	0.00639844	16.8596	3.73328e-07
7944	150.166	50.1484	158.318	-18.4669	25.167	0.0399383	0.00328019	0.399507	0.0400845	1	11	0.13192	0.000833258	2.78191e-05	0.0000000E+000	-100.094	0.00599114	0.00200076	0.0063164	18.4669	6.66166e-07
7082.23	150.854	55.5195	160.746	-20.2054	25.7439	0.0399579	0.00337612	0.404766	0.0482851	1	11	0.132407	0.000823701	2.89577e-05	0.0000000E+000	-100.086	0.00583815	0.00214864	0.00622098	20.2054	1.13863e-06
6307.73	151.658	61.5663	163.678	-22.095	26.3785	0.0399548	0.00318296	0.40983	0.0579842	1	11	0.132757	0.000811089	2.88973e-05	0.0000000E+000	-100.062	0.00566089	0.00229807	0.00610956	22.095	-6.04055e-08
5621.06	152.606	68.287	167.188	-24.1072	27.0793	0.0399584	0.00319583	0.414633	0.0691721	1	11	0.132985	0.000795425	2.95824e-05	0.0000000E+000	-100.046	0.00545962	0.00244303	0.00598129	24.1072	6.85062e-07
5011.6	153.694	75.7361	171.341	-26.2328	27.8397	0.0399605	0.00321674	0.419315	0.0819261	1	11	0.133118	0.000776917	3.01855e-05	0.0000000E+000	-100.086	0.0052352	0.00257976	0.00583631	26.2328	6.03112e-07
4466.43	154.954	84.0482	176.281	-28.4757	28.5997	0.039956	0.00318725	0.423966	0.0963781	1	11	0.133162	0.000755396	3.044e-05	0.0000000E+000	-100.086	0.00498647	0.0027047	0.00567277	28.4757	2.54482e-07
3981.27	156.424	93.2581	182.114	-30.8029	29.3597	0.0399548	0.00312323	0.428659	0.112408	1	11	0.133146	0.000731116	3.05404e-05	0.0000000E+000	-100.062	0.00471647	0.0028119	0.00549107	30.8029	1.00489e-07
3546.6	158.146	103.534	189.022	-33.2117	30.1199	0.039963	0.00317698	0.433437	0.130037	1	11	0.133077	0.000704031	3.07283e-05	0.0000000E+000	-100.046	0.00442622	0.00289772	0.00529039	33.2117	1.87899e-07
3161.01	160.139	114.867	197.076	-35.6517	30.8797	0.0399638	0.00320553	0.438328	0.14891	1	11	0.132975	0.000674739	3.08558e-05	0.0000000E+000	-100.094	0.00412316	0.00295753	0.00507419	35.6517	1.27481e-07
2817.3	162.436	127.393	206.432	-38.106	31.6399	0.0399636	0.00319284	0.443447	0.16888	1	11	0.132844	0.000643525	3.12128e-05	0.0000000E+000	-100.094	0.00381176	0.00298944	0.0048442	38.106	3.56986e-07
2510.8	165.1	141.265	217.288	-40.5513	32.3997	0.0399661	0.00321038	0.448717	0.189658	1	11	0.132691	0.000610668	3.21975e-05	0.0000000E+000	-100.142	0.00349685	0.00299202	0.00460219	40.5513	9.84734e-07
2237.85	168.125	156.587	229.751	-42.9649	33.1599	0.0399659	0.00323502	0.454186	0.210974	1	11	0.132537	0.000576873	3.33777e-05	0.0000000E+000	-100.046	0.00318506	0.00296648	0.00435254	42.9649	1.18011e-06
1995.64	171.568	173.361	243.904	-45.2978	33.9197	0.03996	0.00308926	0.460032	0.232407	1	11	0.132381	0.000542758	3.36701e-05	0.0000000E+000	-100.006	0.00288401	0.00291415	0.00409997	45.2978	2.92413e-07
1778.29	175.508	191.977	260.112	-47.566	34.6799	0.0399622	0.00320161	0.466195	0.253949	1	11	0.13223	0.000508358	3.4444e-05	0.0000000E+000	-100.078	0.00259404	0.00283745	0.0038445	47.566	7.73901e-07
1585.51	179.966	212.407	278.397	-49.7264	35.4397	0.0399696	0.00323296	0.472588	0.275102	1	11	0.132091	0.000474472	3.55211e-05	0.0000000E+000	-100.046	0.002322	0.00274057	0.003592	49.7264	1.07717e-06
1411.84	185.077	235.153	299.25	-51.7954	36.2012	0.039967	0.00317641	0.479387	0.296018	1	11	0.131955	0.000440954	3.62991e-05	0.0000000E+000	-100.094	0.00206674	0.00262593	0.00334169	51.7954	7.77925e-07
1258.79	190.777	259.938	322.434	-53.7238	36.9609	0.0399643	0.00317212	0.486403	0.316121	1	11	0.131842	0.000408895	3.73404e-05	0.0000000E+000	-100.07	0.00183503	0.00250027	0.00310141	53.7238	1.04132e-06
1121.79	197.247	287.353	348.537	-55.5333	37.9715	0.0399546	0.00123236	0.493731	0.335602	1	12	0.137352	0.000394083	3.74507e-05	0.0000000E+000	-100.062	0.00162372	0.00236547	0.00286913	55.5333	1.10281e-07
1000.32	204.413	317.299	377.443	-57.2092	38.7307	0.0399579	0.00119854	0.501433	0.354362	1	12	0.136349	0.000361243	3.73918e-05	0.0000000E+000	-100.102	0.00143485	0.00222723	0.00264941	57.2092	-5.8822e-08
891.427	212.447	350.44	409.807	-58.7746	39.4894	0.0399602	0.00121175	0.509472	0.372554	1	12	0.135483	0.000330601	3.73861e-05	0.0000000E+000	-100.054	0.001265	0.00208668	0.00244017	58.7746	-5.68734e-09
794.238	221.49	386.939	445.847	-60.2126	40.249	0.0399472	0.00126183	0.517877	0.390068	1	12	0.134742	0.000302215	3.77605e-05	0.0000000E+000	-100.054	0.00111425	0.00194657	0.00224292	60.2126	3.74317e-07
707.509	231.561	427.174	485.9	-61.5389	41.0114	0.0399493	0.00123088	0.526602	0.407005	1	12	0.134122	0.000276028	3.78621e-05	0.0000000E+000	-100.086	0.000980782	0.00180931	0.00205804	61.5389	1.01609e-07
631.01	242.657	470.969	529.806	-62.7412	41.7695	0.0399533	0.00122821	0.53554	0.423197	1	12	0.133604	0.000252175	3.79785e-05	0.0000000E+000	-100.054	0.000864489	0.00167787	0.00188748	62.7412	1.16423e-07
562.339	255.085	519.327	578.592	-63.8405	42.5259	0.0399613	0.00121267	0.54498	0.439054	1	12	0.133142	0.000230114	3.83669e-05	0.0000000E+000	-100.07	0.000761973	0.0015513	0.00172833	63.8405	3.88361e-07
501.444	268.915	572.39	632.413	-64.8353	43.2832	0.0399568	0.00123101	0.554505	0.454243	1	12	0.132806	0.000209999	3.84558e-05	0.0000000E+000	-100.062	0.000672379	0.00143117	0.00158125	64.8353	8.8982e-08
446.859	284.279	630.954	692.039	-65.7458	44.0399	0.0399596	0.00121774	0.564484	0.469231	1	12	0.132507	0.000191474	3.88968e-05	0.0000000E+000	-100.03	0.000593587	0.00131746	0.00144501	65.7458	4.40992e-07
398.089	301.384	695.517	758.008	-66.5717	44.8027	0.0399569	0.00119253	0.57482	0.483949	1	12	0.132263	0.000174488	3.92099e-05	0.0000000E+000	-100.054	0.000524533	0.00121049	0.00131925	66.5717	3.13081e-07
354.66	320.508	766.572	830.878	-67.3099	45.562	0.0399564	0.00121899	0.585404	0.498296	1	12	0.132056	0.000158936	3.93314e-05	0.0000000E+000	-100.118	0.000464264	0.0011104	0.00120355	67.3099	1.21525e-07
316.316	341.128	843.68	910.036	-67.9849	46.3189	0.0399583	0.00121214	0.596377	0.512578	1	12	0.13189	0.000144928	3.97135e-05	0.0000000E+000	-100.062	0.000411909	0.00101873	0.00109886	67.9849	3.82045e-07
281.894	364.354	929.161	998.045	-68.5883	47.0744	0.0399574	0.00120593	0.607635	0.526653	1	12	0.131756	0.000132014	3.98928e-05	0.0000000E+000	-100.038	0.000365783	0.000932805	0.00100196	68.5883	1.79312e-07
251.044	390.059	1023.49	1095.3	-69.1378	47.8309	0.0399556	0.00119327	0.619421	0.540864	1	12	0.131642	0.000120188	4.0236e-05	0.0000000E+000	-100.054	0.000325137	0.000853137	0.000912993	69.1378	3.43224e-07
223.925	418.182	1125.92	1201.07	-69.6243	48.5937	0.0399574	0.00119652	0.631263	0.554738	1	12	0.131552	0.000109529	4.05744e-05	0.0000000E+000	-100.054	0.000289887	0.000780496	0.000832591	69.6243	3.38381e-07
199.553	449.594	1239.3	1318.34	-70.0603	49.3552	0.0399517	0.00120721	0.643552	0.568706	1	12	0.131478	9.97305e-05	4.09351e-05	0.0000000E+000	-100.086	0.000258683	0.000713059	0.000758532	70.0603	3.60712e-07
177.781	484.347	1363.89	1447.34	-70.449	50.1233	0.0399504	0.00119314	0.656379	0.582872	1	12	0.131415	9.0798e-05	4.12035e-05	0.0000000E+000	-100.054	0.000231215	0.000651088	0.000690924	70.449	2.68353e-07
158.428	522.689	1500.64	1589.06	-70.7962	50.8898	0.0399582	0.00119204	0.669438	0.597009	1	12	0.131364	8.26678e-05	4.14485e-05	0.0000000E+000	-100.086	0.000206995	0.000594284	0.000629301	70.7962	2.45068e-07
141.311	564.352	1649.79	1743.65	-71.1155	51.6419	0.0399481	0.00120025	0.682675	0.61116	1	12	0.131328	7.53181e-05	4.16459e-05	0.0000000E+000	-100.054	0.000185623	0.00054264	0.00057351	71.1155	1.97405e-07
125.846	610.756	1815.43	1915.42	-71.4058	52.3974	0.0399519	0.00120415	0.696629	0.6258	1	12	0.131291	6.85446e-05	4.19599e-05	0.0000000E+000	-100.054	0.000166472	0.000494827	0.000522079	71.4058	3.13993e-07
112.19	661.464	1996.05	2102.79	-71.6655	53.1429	0.0399532	0.00121835	0.710715	0.640389	1	12	0.131265	6.24243e-05	4.2281e-05	0.0000000E+000	-100.03	0.000149594	0.000451417	0.000475558	71.6655	3.21108e-07
100.032	717.667	2194.6	2308.97	-71.8915	53.9027	0.039952	0.00118845	0.724979	0.654941	1	12	0.131246	5.68419e-05	4.25351e-05	0.0000000E+000	-100.054	0.000134613	0.000411643	0.000433094	71.8915	2.54022e-07
89.116	778.916	2414.64	2537.16	-72.1213	54.6698	0.0399489	0.0012046	0.739627	0.669917	1	12	0.131227	5.1722e-05	4.27483e-05	0.0000000E+000	-100.07	0.000121003	0.000375108	0.000394142	72.1213	2.13225e-07
79.4155	847.208	2655.49	2787.36	-72.3052	55.6862	0.0399582	0.00103413	0.754692	0.684971	1	13	0.131776	4.72762e-05	4.31107e-05	0.0000000E+000	-100.054	0.000109044	0.000341789	0.000358762	72.3052	3.6238e-07
70.8387	921.095	2918.03	3059.95	-72.4813	56.4374	0.0399624	0.00103279	0.769945	0.70018	1	13	0.131662	4.30275e-05	4.3301e-05	0.0000000E+000	-100.11	9.83729e-05	0.000311645	0.000326803	72.4813	1.90362e-07
63.0823	1003.73	3210.48	3363.73	-72.6385	57.2178	0.0399629	0.00104281	0.785856	0.715881	1	13	0.131563	3.91122e-05	4.35236e-05	0.0000000E+000	-100.062	8.8711e-05	0.000283745	0.000297289	72.6385	2.22548e-07
56.2418	1093.03	3529.16	3694.54	-72.7915	57.9613	0.0399622	0.00103696	0.801844	0.731661	1	13	0.131483	3.55885e-05	4.37129e-05	0.0000000E+000	-100.062	8.00773e-05	0.000258553	0.000270669	72.7915	1.89349e-07
50.1444	1189.37	3877.97	4056.26	-72.9493	58.7182	0.0399585	0.00103839	0.818452	0.748084	1	13	0.131419	3.23989e-05	4.39163e-05	0.0000000E+000	-100.07	7.22878e-05	0.000235696	0.000246532	72.9493	2.03384e-07
44.6712	1301.1	4267.05	4461	-73.0426	59.4822	0.0399576	0.00103526	0.834959	0.763932	1	13	0.131368	2.94481e-05	4.41295e-05	0.0000000E+000	-100.046	6.53802e-05	0.000214419	0.000224165	73.0426	2.13147e-07
39.8089	1420.95	4691.96	4902.41	-73.1511	60.2447	0.0399543	0.00103699	0.85209	0.780504	1	13	0.13133	2.67889e-05	4.43831e-05	0.0000000E+000	-100.038	5.91236e-05	0.000195225	0.000203981	73.1511	2.53619e-07
35.4653	1552.97	5161.33	5389.9	-73.2542	60.9951	0.0399585	0.00104154	0.869471	0.79729	1	13	0.131297	2.43598e-05	4.45557e-05	0.0000000E+000	-100.078	5.34567e-05	0.000177664	0.000185532	73.2542	1.72658e-07
31.6296	1696.57	5671.52	5919.84	-73.3461	61.7194	0.0399581	0.00104177	0.887212	0.814342	1	13	0.131268	2.21742e-05	4.47412e-05	0.0000000E+000	-100.046	4.84117e-05	0.000161838	0.000168923	73.3461	1.85449e-07
28.1701	1857.84	6239.36	6510.09	-73.4185	62.5237	0.0399495	0.00103382	0.905507	0.831762	1	13	0.131243	2.01599e-05	4.49992e-05	0.0000000E+000	-100.11	4.38364e-05	0.00014722	0.000153608	73.4185	2.58017e-07
25.1044	2032.17	6861.72	7156.31	-73.5028	63.2799	0.0399588	0.00104867	0.923926	0.849422	1	13	0.131228	1.83374e-05	4.52313e-05	0.0000000E+000	-100.062	3.96808e-05	0.000133984	0.000139737	73.5028	2.32101e-07
22.3854	2225.06	7543.06	7864.39	-73.5649	63.9664	0.0399581	0.00104192	0.942558	0.867107	1	13	0.131215	1.66848e-05	4.54076e-05	0.0000000E+000	-100.102	3.5976e-05	0.00012196	0.000127155	73.5649	1.76285e-07