File: data/DE_49_6_30.mpt
EC-Lab ASCII FILE
Nb header lines : 75

Potentio Electrochemical Impedance Spectroscopy

Run on channel : 2 (SN 20919)
User :
CE vs. WE compliance from -10 V to 10 V
Electrode connection : standard
Ewe ctrl range : min = -10.00 V, max = 10.00 V
Safety Limits :
	Do not start on E overload
Acquisition started on : 01/22/2020 09:36:40
Technique started on : 01/22/2020 09:36:41
Saved on :
	File : DE_49_6_30.mpr
	Directory : P:\Chemistry\Data\VMP3\Kyler\DOE\DE_49\30C\
	Host : 10.0.4.99
Device : VMP3 (SN 0183)
Address : USB
EC-Lab for windows v11.33 (software)
Internet server v11.32 (firmware)
Command interpretor v11.33 (firmware)
Electrode material :
Initial state :
Electrolyte :
Comments :
Electrode surface area : 0.001 cm²
Characteristic mass : 0.001 g
Equivalent Weight : 0.000 g/eq.
Density : 0.000 g/cm3
Record Analogic IN 1
Cycle Definition : Charge/Discharge alternance
External device configuration :
   device type : Thermostat
   device name : Other
   Analog OUT :
      mode : E/V
      unit : T/°C
      max : 400.000 at 5.000 V
      min : -100.000 at 0.000 V
      current : 0.000
   Analog IN 1 :
      unit : T/°C
      max : 400.000 at 5.000 V
      min : -100.000 at 0.000 V
Mode                Single sine
E (V)               0.0000
vs.                 Eoc
tE (h:m:s)          0:00:0.0000
record              0
dI                  1.000
unit dI             mA
dt (s)              0.000
fi                  1.000
unit fi             MHz
ff                  1.000
unit ff             Hz
Nd                  20
Points              per decade
spacing             Logarithmic
Va (mV)             128.0
pw                  0.50
Na                  3
corr                0
E range min (V)     -10.000
E range max (V)     10.000
I Range             Auto
Bandwidth           5
nc cycles           0
goto Ns'            0
nr cycles           0
inc. cycle          1

freq/Hz	Re(Z)/Ohm	-Im(Z)/Ohm	|Z|/Ohm	Phase(Z)/deg	time/s	<Ewe>/V	<I>/mA	Cs/µF	Cp/µF	cycle number	I Range	|Ewe|/V	|I|/A	(Q-Qo)/mA.h	Analog OUT/V	Analog IN 1/V	Re(Y)/Ohm-1	Im(Y)/Ohm-1	|Y|/Ohm-1	Phase(Y)/deg	dq/mA.h
1.00002e+06	63.4226	157.911	170.171	-68.1178	1.95149	-0.00336445	0.00201652	0.00100786	0.000867864	1	11	0.00264826	1.55623e-05	1.57231e-06	0.0000000E+000	-100.094	0.00219014	0.00545305	0.00587644	68.1178	1.57231e-06
891247	71.5946	170.843	185.238	-67.2631	2.54848	-0.00294619	0.00205034	0.00104526	0.000889116	1	11	0.00490814	2.64964e-05	1.80238e-06	0.0000000E+000	-100.078	0.0020865	0.00497894	0.00539845	67.2631	2.30072e-07
794333	81.8147	185.158	202.429	-66.1611	3.14449	-0.00259192	0.00202321	0.00108212	0.000905353	1	11	0.00833256	4.1163e-05	2.22599e-06	0.0000000E+000	-100.086	0.00199659	0.00451856	0.00494002	66.1611	4.23613e-07
707950	93.5995	201.081	221.798	-65.0389	3.74048	-0.00231305	0.00209959	0.00111801	0.000918909	1	11	0.0131089	5.91027e-05	2.46977e-06	0.0000000E+000	-100.054	0.00190264	0.00408747	0.0045086	65.0389	2.43782e-07
630957	107.055	218.855	243.636	-63.9339	4.33548	-0.00206732	0.00197861	0.00115256	0.000930027	1	11	0.0192382	7.89629e-05	2.98665e-06	0.0000000E+000	-100.07	0.00180354	0.00368702	0.00410449	63.9339	5.16875e-07
562342	122.07	237.582	267.107	-62.8058	4.93147	-0.00185695	0.00210889	0.00119126	0.000942456	1	11	0.0265842	9.95263e-05	3.09511e-06	0.0000000E+000	-100.11	0.00171095	0.00332998	0.00374381	62.8058	1.08462e-07
501206	138.921	256.925	292.078	-61.5996	5.52747	-0.00168231	0.00213528	0.00123594	0.000956339	1	11	0.0349724	0.000119736	3.12501e-06	0.0000000E+000	-100.086	0.00162843	0.00301168	0.00342374	61.5996	2.98944e-08
446686	157.926	276.932	318.798	-60.3052	6.12349	-0.00155256	0.00209904	0.0012866	0.000970869	1	11	0.0443506	0.000139118	3.3342e-06	0.0000000E+000	-100.078	0.0015539	0.00272485	0.00313678	60.3052	2.09191e-07
398103	179.182	296.987	346.854	-58.896	6.71847	-0.00151839	0.00205146	0.00134613	0.000986889	1	11	0.054683	0.000157654	3.68724e-06	0.0000000E+000	-100.078	0.00148937	0.00246856	0.00288306	58.896	3.53047e-07
354810	201.879	317.342	376.113	-57.5374	7.31349	-0.00150946	0.00198177	0.0014135	0.00100627	1	11	0.0659772	0.000175418	3.69191e-06	0.0000000E+000	-100.062	0.0014271	0.00224332	0.00265877	57.5374	4.66342e-09
316230	227.06	337.352	406.648	-56.0569	7.90847	-0.00150821	0.00205332	0.00149188	0.00102675	1	11	0.0782648	0.000192463	4.2533e-06	0.0000000E+000	-100.126	0.0013731	0.00204007	0.00245913	56.0569	5.61397e-07
281835	254.556	357.043	438.496	-54.5128	8.50449	-0.00153611	0.00211279	0.00158163	0.00104861	1	11	0.0916834	0.000209086	4.33941e-06	0.0000000E+000	-100.126	0.00132389	0.00185691	0.00228052	54.5128	8.61014e-08
251188	284.074	375.875	471.148	-52.9192	9.09949	-0.0015544	0.00204812	0.00168569	0.00107288	1	11	0.106193	0.000225392	4.78658e-06	0.0000000E+000	-100.134	0.00127973	0.00169328	0.00212248	52.9192	4.47175e-07
223872	315.341	393.756	504.464	-51.3104	9.55948	-0.0015956	0.0020299	0.00180548	0.00109999	1	11	0.121877	0.000241597	5.14207e-06	0.0000000E+000	-100.086	0.00123914	0.00154727	0.0019823	51.3104	3.55487e-07
199544	349.703	413.633	541.649	-49.7874	10.3225	-0.00161083	0.000213018	0.00192827	0.0011245	1	12	0.0566605	0.000104607	5.44058e-06	0.0000000E+000	-100.07	0.00119196	0.00140987	0.00184621	49.7874	2.9851e-07
177832	385.003	430.084	577.235	-48.1657	10.9185	-0.00161945	0.000210053	0.00208093	0.00115521	1	12	0.0670621	0.000116178	5.63827e-06	0.0000000E+000	-100.11	0.00115547	0.00129077	0.0017324	48.1657	1.97689e-07
158486	421.645	445.239	613.206	-46.559	11.5145	-0.00158969	0.000238233	0.00225546	0.00118907	1	12	0.0789729	0.000128787	5.73523e-06	0.0000000E+000	-100.07	0.00112133	0.00118408	0.00163077	46.559	9.69634e-08
141256	459.626	459.148	649.672	-44.9702	12.1105	-0.00159711	0.000218838	0.00245392	0.00122568	1	12	0.0925369	0.000142436	5.80821e-06	0.0000000E+000	-100.094	0.00108897	0.00108784	0.00153924	44.9702	7.29769e-08
125909	498.502	471.617	686.241	-43.4126	12.7075	-0.00160116	0.000212591	0.00268023	0.0012659	1	12	0.107926	0.000157272	5.84189e-06	0.0000000E+000	-100.078	0.00105855	0.00100147	0.00145721	43.4126	3.36883e-08
112205	538.067	482.897	722.984	-41.9069	13.1665	-0.00161216	0.000224061	0.00293734	0.00131041	1	12	0.125326	0.000173346	5.76143e-06	0.0000000E+000	-100.078	0.00102939	0.000923842	0.00138316	41.9069	-8.04645e-08
100004	578.377	492.987	759.971	-40.4431	13.7625	-0.00154249	0.000237413	0.00322826	0.00135846	1	12	0.129369	0.000170229	5.55856e-06	0.0000000E+000	-100.086	0.00100142	0.000853574	0.00131584	40.4431	-2.02868e-07
89129.3	619.311	502.011	797.221	-39.0281	14.3585	-0.00150533	0.000215911	0.00355702	0.00141044	1	12	0.130196	0.000163313	5.5286e-06	0.0000000E+000	-100.086	0.000974432	0.00078987	0.00125436	39.0281	-2.99584e-08
79433.3	660.462	509.883	834.38	-37.6685	14.9545	-0.00147692	0.000215631	0.00392959	0.00146744	1	12	0.13013	0.00015596	5.35762e-06	0.0000000E+000	-100.102	0.00094868	0.00073239	0.00119849	37.6685	-1.70981e-07
70795	702.007	517.121	871.91	-36.3766	15.5505	-0.00144564	0.00022462	0.00434736	0.00152921	1	12	0.130053	0.000149159	5.42261e-06	0.0000000E+000	-100.054	0.000923417	0.000680219	0.00114691	36.3766	6.49897e-08
63093.8	743.982	523.366	909.627	-35.1251	16.1465	-0.00142079	0.000231781	0.00481978	0.00159556	1	12	0.12995	0.00014286	5.52773e-06	0.0000000E+000	-100.054	0.000899157	0.000632527	0.00109935	35.1251	1.05115e-07
56237	786.269	528.731	947.51	-33.9191	16.7415	-0.00140735	0.000227137	0.00535258	0.00166673	1	12	0.129845	0.000137038	5.61004e-06	0.0000000E+000	-100.046	0.000875797	0.000588935	0.0010554	33.9191	8.23146e-08
50122.5	828.355	533.512	985.295	-32.784	17.3365	-0.00137691	0.00023137	0.00595173	0.00174501	1	12	0.129628	0.000131563	5.59223e-06	0.0000000E+000	-100.086	0.000853264	0.000549555	0.00101492	32.784	-1.78153e-08
44666.7	870.883	537.471	1023.38	-31.6811	17.9335	-0.00136386	0.000255576	0.0066295	0.00182858	1	12	0.129521	0.000126562	5.57091e-06	0.0000000E+000	-100.094	0.000831541	0.000513191	0.000977151	31.6811	-2.13165e-08
39814.1	913.561	540.826	1061.64	-30.6254	18.5295	-0.0013808	0.00022031	0.00739139	0.00191816	1	12	0.129294	0.000121787	5.58831e-06	0.0000000E+000	-100.094	0.000810551	0.000479844	0.000941936	30.6254	1.74027e-08
35481	956.336	543.486	1099.98	-29.6096	18.9885	-0.00133559	0.000259045	0.00825346	0.00201485	1	12	0.139328	0.000126664	5.70904e-06	0.0000000E+000	-100.078	0.00079039	0.000449178	0.000909108	29.6096	1.20726e-07
31621.1	999.721	545.847	1139.03	-28.6345	19.5835	-0.00133666	0.000239836	0.00922086	0.00211759	1	12	0.130103	0.000114223	5.59654e-06	0.0000000E+000	-100.11	0.000770562	0.000420727	0.000877939	28.6345	-1.12502e-07
28188.1	1042.71	547.152	1177.55	-27.6878	20.0435	-0.00134238	0.00022141	0.0103192	0.00222794	1	12	0.137129	0.000116453	5.52835e-06	0.0000000E+000	-100.086	0.00075198	0.000394593	0.000849221	27.6878	-6.81848e-08
25116.9	1086.36	547.931	1216.72	-26.7652	20.6395	-0.00133254	0.000239351	0.0115645	0.00234531	1	12	0.129535	0.000106463	5.6832e-06	0.0000000E+000	-100.102	0.000733827	0.000370124	0.000821884	26.7652	1.54847e-07
22389	1129.83	548.191	1255.8	-25.8826	21.0995	-0.00132308	0.00024985	0.0129674	0.00247103	1	12	0.133979	0.000106689	5.70869e-06	0.0000000E+000	-100.054	0.000716431	0.000347611	0.000796308	25.8826	2.54908e-08
19948.8	1173.2	547.393	1294.61	-25.013	21.5595	-0.00133248	0.000235173	0.0145748	0.00260569	1	12	0.137516	0.000106222	5.69159e-06	0.0000000E+000	-100.102	0.000699986	0.000326602	0.000772431	25.013	-1.70996e-08
17786.9	1216.42	545.739	1333.23	-24.1631	22.0195	-0.00131859	0.000233215	0.0163959	0.00274723	1	12	0.140257	0.000105201	5.74523e-06	0.0000000E+000	-100.086	0.000684341	0.000307026	0.000750058	24.1631	5.36353e-08
15847.7	1260.14	543.921	1372.52	-23.3467	22.6155	-0.0013169	0.000244759	0.0184637	0.0028997	1	12	0.1294	9.42794e-05	5.66656e-06	0.0000000E+000	-100.086	0.000668933	0.000288735	0.000728587	23.3467	-7.86641e-08
14121.9	1303.57	540.872	1411.33	-22.5343	23.0755	-0.00132225	0.000221018	0.0208369	0.00306033	1	12	0.13078	9.26647e-05	5.7443e-06	0.0000000E+000	-100.038	0.000654456	0.000271544	0.000708554	22.5343	7.77379e-08
12590.9	1346.14	536.861	1449.25	-21.7428	23.5355	-0.00132614	0.000236908	0.0235451	0.003231	1	12	0.131772	9.09241e-05	5.69798e-06	0.0000000E+000	-100.078	0.000640922	0.000255608	0.000690012	21.7428	-4.63229e-08
11217.7	1388.35	531.973	1486.78	-20.9653	23.9945	-0.00131305	0.00023301	0.0266702	0.00341438	1	12	0.132459	8.9091e-05	5.68982e-06	0.0000000E+000	-100.046	0.000628067	0.000240656	0.000672595	20.9653	-8.15995e-09
10002.2	1429.95	526.239	1523.71	-20.2042	24.4545	-0.00132241	0.000227695	0.0302371	0.00360663	1	12	0.132933	8.72428e-05	5.66699e-06	0.0000000E+000	-100.102	0.00061591	0.000226662	0.000656293	20.2042	-2.28273e-08
8914.93	1471.37	519.887	1560.52	-19.4601	24.9369	-0.00128865	0.000242129	0.0343394	0.00381129	1	12	0.13322	8.5369e-05	5.66596e-06	0.0000000E+000	-100.118	0.000604205	0.000213486	0.000640812	19.4601	-1.03337e-09
7944	1511.55	512.53	1596.08	-18.7305	25.463	-0.00127141	0.000231872	0.0390897	0.00403078	1	12	0.133404	8.35823e-05	5.77133e-06	0.0000000E+000	-100.062	0.000593352	0.000201191	0.000626534	18.7305	1.05379e-07
7082.23	1550.54	505.038	1630.72	-18.0413	26.0399	-0.00125002	0.000248116	0.0444965	0.00426792	1	12	0.133503	8.18675e-05	5.7481e-06	0.0000000E+000	-100.102	0.000583077	0.000189918	0.000613227	18.0413	-2.32321e-08
6307.73	1589.38	496.251	1665.05	-17.3399	26.6745	-0.00124987	0.000200206	0.0508446	0.0045164	1	12	0.133543	8.02034e-05	5.82246e-06	0.0000000E+000	-100.134	0.000573287	0.000178997	0.000600582	17.3399	7.43529e-08
5621.06	1626.7	487.334	1698.13	-16.6774	27.3753	-0.00124598	0.000217624	0.0581	0.00478506	1	12	0.13354	7.86397e-05	5.89208e-06	0.0000000E+000	-100.054	0.000564113	0.000168999	0.000588883	16.6774	6.9628e-08
5011.6	1662.23	477.878	1729.56	-16.0395	28.1357	-0.00123295	0.000215125	0.0664548	0.00507326	1	12	0.133517	7.71969e-05	6.0048e-06	0.0000000E+000	-100.11	0.000555673	0.000159751	0.00057818	16.0395	1.12715e-07
4466.43	1696.62	468.082	1760.01	-15.4237	28.8957	-0.00123763	0.00022844	0.0761269	0.00538458	1	12	0.133473	7.58368e-05	6.12259e-06	0.0000000E+000	-100.102	0.000547717	0.00015111	0.000568179	15.4237	1.17796e-07
3981.27	1729.64	458.124	1789.28	-14.8351	29.6557	-0.00123921	0.00021464	0.08726	0.00572037	1	12	0.133426	7.45699e-05	6.1907e-06	0.0000000E+000	-100.07	0.000540254	0.000143095	0.000558884	14.8351	6.81064e-08
3546.6	1761.37	449.008	1817.7	-14.3012	30.4159	-0.00124602	0.000234091	0.0999434	0.00609844	1	12	0.133374	7.33749e-05	6.28426e-06	0.0000000E+000	-100.062	0.000533097	0.000135897	0.000550146	14.3012	9.35633e-08
3161.01	1791.43	439.036	1844.44	-13.7704	31.1757	-0.00124523	0.000220272	0.114682	0.00649777	1	12	0.133325	7.22845e-05	6.36949e-06	0.0000000E+000	-100.054	0.000526586	0.000129054	0.00054217	13.7704	8.52244e-08
2817.3	1819.78	430.566	1870.02	-13.3116	31.9359	-0.00124398	0.000224972	0.131204	0.00695559	1	12	0.133278	7.12708e-05	6.39241e-06	0.0000000E+000	-100.086	0.000520385	0.000123125	0.000534753	13.3116	2.29229e-08
2510.8	1845.09	421.735	1892.67	-12.875	32.6957	-0.00124277	0.000216617	0.150303	0.00746271	1	12	0.133183	7.03679e-05	6.3881e-06	0.0000000E+000	-100.038	0.00051507	0.000117731	0.000528354	12.875	-4.31289e-09
2237.85	1872.16	415.827	1917.78	-12.5227	33.4559	-0.00124499	0.000217512	0.171032	0.00804089	1	12	0.13319	6.94503e-05	6.43966e-06	0.0000000E+000	-100.046	0.000509031	0.000113062	0.000521436	12.5227	5.15569e-08
1995.64	1896.43	409.612	1940.17	-12.1881	34.2157	-0.00123298	0.000216654	0.1947	0.00867827	1	12	0.133151	6.86289e-05	6.47182e-06	0.0000000E+000	-100.102	0.000503802	0.000108817	0.00051542	12.1881	3.2164e-08
1778.29	1918.72	405.078	1961.02	-11.9211	34.976	-0.00123981	0.000223386	0.220942	0.00942742	1	12	0.133123	6.78847e-05	6.57458e-06	0.0000000E+000	-100.118	0.000498942	0.000105336	0.00050994	11.9211	1.02759e-07
1585.51	1939.53	402.424	1980.84	-11.7217	35.7357	-0.00124117	0.00021408	0.249441	0.0102952	1	12	0.133084	6.71856e-05	6.57192e-06	0.0000000E+000	-100.11	0.000494308	0.000102562	0.000504836	11.7217	-2.66174e-09
1411.84	1959.72	401.908	2000.51	-11.5897	36.4972	-0.0012342	0.000244199	0.280485	0.0113209	1	12	0.133063	6.65144e-05	6.66401e-06	0.0000000E+000	-100.07	0.00048968	0.000100425	0.000499872	11.5897	9.20962e-08
1258.79	1979.17	402.798	2019.74	-11.5037	37.257	-0.00124098	0.000222155	0.313891	0.0124842	1	12	0.133035	6.58673e-05	6.68064e-06	0.0000000E+000	-100.07	0.000485167	9.87406e-05	0.000495113	11.5037	1.66262e-08
1121.79	1997.65	406.872	2038.66	-11.5123	38.0154	-0.00124342	0.000226892	0.348697	0.0138891	1	12	0.133011	6.52443e-05	6.76391e-06	0.0000000E+000	-100.038	0.000480649	9.78964e-05	0.000490517	11.5123	8.32678e-08
1000.32	2016.1	412.548	2057.88	-11.5646	38.7747	-0.00123955	0.000242072	0.385662	0.0154995	1	12	0.132997	6.46282e-05	6.85166e-06	0.0000000E+000	-100.078	0.000476073	9.74171e-05	0.000485938	11.5646	8.7753e-08
891.427	2032.55	421.703	2075.83	-11.7212	39.5334	-0.00124341	0.00021947	0.423378	0.0174726	1	12	0.13298	6.40609e-05	6.93165e-06	0.0000000E+000	-100.094	0.00047169	9.78639e-05	0.000481735	11.7212	7.99938e-08
794.238	2048.93	432.9	2094.16	-11.9301	40.2929	-0.00124072	0.000216504	0.462894	0.0197806	1	12	0.132965	6.34931e-05	6.96815e-06	0.0000000E+000	-100.086	0.000467205	9.87118e-05	0.000477519	11.9301	3.64946e-08
707.509	2066.42	447.52	2114.32	-12.2197	41.0555	-0.0012459	0.000206508	0.502662	0.0225194	1	12	0.132955	6.2883e-05	7.01878e-06	0.0000000E+000	-100.086	0.000462249	0.000100108	0.000472965	12.2197	5.06285e-08
631.01	2083.33	465.065	2134.61	-12.5839	41.8134	-0.00124057	0.000238529	0.542338	0.0257432	1	12	0.132947	6.22815e-05	7.07061e-06	0.0000000E+000	-100.094	0.000457216	0.000102065	0.00046847	12.5839	5.18314e-08
562.339	2100.85	486.501	2156.45	-13.0383	42.5699	-0.00124277	0.000220905	0.581752	0.0296093	1	12	0.132937	6.16462e-05	7.06341e-06	0.0000000E+000	-100.086	0.00045177	0.000104618	0.000463725	13.0383	-7.20195e-09
501.444	2119.1	511.04	2179.85	-13.5585	43.3272	-0.00124421	0.000214304	0.621073	0.0341349	1	12	0.132926	6.09796e-05	7.15276e-06	0.0000000E+000	-100.11	0.000445962	0.000107548	0.000458747	13.5585	8.93519e-08
446.859	2136.44	539.673	2203.54	-14.1766	44.0839	-0.00124253	0.000216075	0.659962	0.0395856	1	12	0.132919	6.03208e-05	7.13201e-06	0.0000000E+000	-100.078	0.000439994	0.000111144	0.000453814	14.1766	-2.07494e-08
398.089	2156.76	573.213	2231.63	-14.8837	44.8467	-0.00124162	0.000216653	0.697467	0.0460163	1	12	0.13291	5.95575e-05	7.17901e-06	0.0000000E+000	-100.07	0.000433069	0.000115099	0.000448103	14.8837	4.70002e-08
354.66	2176.64	610.577	2260.66	-15.6695	45.6069	-0.00123938	0.000209529	0.734967	0.0536143	1	12	0.132906	5.87911e-05	7.19017e-06	0.0000000E+000	-100.022	0.00042591	0.000119474	0.00044235	15.6695	1.11603e-08
316.316	2197.2	651.77	2291.84	-16.5222	46.3639	-0.00124756	0.00020289	0.771978	0.0624347	1	12	0.132897	5.79872e-05	7.27601e-06	0.0000000E+000	-100.07	0.000418315	0.000124087	0.000436331	16.5222	8.5846e-08
281.894	2219.23	697.595	2326.29	-17.4501	47.1194	-0.00124126	0.000245373	0.809339	0.0727797	1	12	0.132891	5.71257e-05	7.30512e-06	0.0000000E+000	-100.062	0.000410086	0.000128907	0.000429869	17.4501	2.91054e-08
251.044	2242.7	750.009	2364.79	-18.4911	47.8759	-0.0012506	0.000210704	0.845285	0.0850262	1	12	0.132888	5.61945e-05	7.40401e-06	0.0000000E+000	-100.078	0.00040104	0.000134117	0.000422871	18.4911	9.88911e-08
223.925	2267.83	808.194	2407.53	-19.6147	48.6387	-0.00124003	0.000210648	0.879431	0.0991034	1	12	0.132885	5.51956e-05	7.49999e-06	0.0000000E+000	-100.086	0.00039126	0.000139435	0.000415363	19.6147	9.59748e-08
199.553	2296.6	872.989	2456.92	-20.8129	49.4002	-0.00124452	0.000219134	0.913593	0.115342	1	12	0.13288	5.4084e-05	7.5918e-06	0.0000000E+000	-100.062	0.000380453	0.000144619	0.000407013	20.8129	9.18186e-08
177.781	2326.15	945.93	2511.13	-22.1291	50.1682	-0.00124057	0.000220346	0.9464	0.134294	1	12	0.132873	5.29137e-05	7.63105e-06	0.0000000E+000	-100.102	0.000368893	0.00015001	0.000398227	22.1291	3.92425e-08
158.428	2356.47	1025.17	2569.81	-23.5113	50.9347	-0.00123867	0.000208709	0.979918	0.155949	1	12	0.132866	5.17028e-05	7.67984e-06	0.0000000E+000	-100.062	0.000356828	0.000155237	0.000389134	23.5113	4.87942e-08
141.311	2388.36	1111.81	2634.46	-24.9626	51.6879	-0.00125217	0.000208821	1.01301	0.180423	1	12	0.132859	5.04313e-05	7.69472e-06	0.0000000E+000	-100.086	0.000344125	0.000160195	0.000379584	24.9626	1.48773e-08
125.846	2423.78	1208.51	2708.36	-26.5012	52.6934	-0.00125524	4.77566e-05	1.04648	0.208363	1	13	0.133297	4.9217e-05	7.83715e-06	0.0000000E+000	-100.078	0.000330431	0.000164755	0.000369227	26.5012	1.42433e-07
112.19	2460.76	1313.95	2789.58	-28.1004	53.4388	-0.00125271	4.15778e-05	1.07966	0.239533	1	13	0.133261	4.77709e-05	7.79446e-06	0.0000000E+000	-100.086	0.00031622	0.000168849	0.000358476	28.1004	-4.26951e-08
100.032	2500.51	1431	2881.03	-29.7817	54.1987	-0.00125105	4.49785e-05	1.11184	0.2743	1	13	0.133221	4.62408e-05	7.78902e-06	0.0000000E+000	-100.118	0.000301255	0.000172403	0.000347098	29.7817	-5.43211e-09
89.116	2543.4	1560.12	2983.77	-31.5249	54.9657	-0.00125243	4.35429e-05	1.14474	0.312963	1	13	0.133181	4.4635e-05	7.81899e-06	0.0000000E+000	-100.046	0.000285683	0.000175238	0.000335147	31.5249	2.99664e-08
79.4155	2590.01	1703.22	3099.85	-33.3294	55.7302	-0.0012566	4.24168e-05	1.17664	0.355225	1	13	0.133144	4.29517e-05	7.803e-06	0.0000000E+000	-100.062	0.000269537	0.000177251	0.000322596	33.3294	-1.59898e-08
70.8387	2639.78	1860.24	3229.39	-35.1722	56.4814	-0.00125694	4.37964e-05	1.20776	0.400754	1	13	0.133114	4.12195e-05	7.83064e-06	0.0000000E+000	-100.062	0.00025312	0.000178373	0.000309656	35.1722	2.76346e-08
63.0823	2694.36	2036.07	3377.15	-37.0775	57.2618	-0.00125142	4.46876e-05	1.23914	0.450406	1	13	0.133077	3.9405e-05	7.83052e-06	0.0000000E+000	-100.07	0.00023624	0.000178522	0.000296107	37.0775	-1.15756e-10
56.2418	2752.87	2228.75	3541.98	-38.994	58.0053	-0.00126248	4.11302e-05	1.26969	0.502725	1	13	0.133049	3.75634e-05	7.87188e-06	0.0000000E+000	-100.078	0.000219429	0.000177652	0.000282328	38.994	4.13625e-08
50.1444	2817.82	2442.48	3729.05	-40.9187	58.7622	-0.00125327	3.89283e-05	1.29947	0.557484	1	13	0.133028	3.56734e-05	7.90318e-06	0.0000000E+000	-100.07	0.000202636	0.000175645	0.000268165	40.9187	3.12965e-08
44.6712	2885.89	2676.78	3936.18	-42.8472	59.5262	-0.00126024	3.86766e-05	1.33101	0.615539	1	13	0.132993	3.37874e-05	7.90628e-06	0.0000000E+000	-100.054	0.000186264	0.000172768	0.000254054	42.8472	3.09917e-09
39.8089	2961.78	2935.81	4170.26	-44.7477	60.2887	-0.00126179	4.51032e-05	1.3618	0.674901	1	13	0.13297	3.18853e-05	7.89615e-06	0.0000000E+000	-100.07	0.000170304	0.000168811	0.000239793	44.7477	-1.01241e-08
35.4653	3045.03	3223.21	4434.11	-46.6282	61.0391	-0.00126212	3.77256e-05	1.39228	0.735686	1	13	0.132943	2.99818e-05	7.9165e-06	0.0000000E+000	-100.078	0.000154874	0.000163937	0.000225524	46.6282	2.03471e-08
31.6296	3137.33	3536.51	4727.55	-48.4229	61.7635	-0.00126374	2.53288e-05	1.42283	0.796213	1	13	0.132923	2.81167e-05	7.95139e-06	0.0000000E+000	-100.102	0.000140374	0.000158235	0.000211526	48.4229	3.48918e-08
28.1701	3238.62	3885.91	5058.55	-50.1912	62.5678	-0.001249	3.78373e-05	1.45392	0.85797	1	13	0.132911	2.62745e-05	7.98498e-06	0.0000000E+000	-100.054	0.000126563	0.000151859	0.000197685	50.1912	3.35857e-08
25.1044	3350.96	4273.31	5430.48	-51.8979	63.3239	-0.00125985	3.89428e-05	1.48356	0.918667	1	13	0.132895	2.44721e-05	7.9881e-06	0.0000000E+000	-100.11	0.00011363	0.000144907	0.000184146	51.8979	3.12135e-09
22.3854	3473.06	4709.04	5851.25	-53.5901	64.0104	-0.00126171	3.57247e-05	1.50981	0.977889	1	13	0.132883	2.27101e-05	7.96175e-06	0.0000000E+000	-100.086	0.000101441	0.000137542	0.000170904	53.5901	-2.63512e-08
19.9553	3610.6	5183.41	6316.97	-55.1401	64.7722	-0.00125716	3.95282e-05	1.53867	1.036	1	13	0.132871	2.1034e-05	7.93969e-06	0.0000000E+000	-100.046	9.04819e-05	0.000129896	0.000158304	55.1401	-2.20627e-08
17.7961	3763.98	5705.17	6834.95	-56.5852	65.6166	-0.00125455	3.26306e-05	1.56757	1.09218	1	13	0.132861	1.94385e-05	7.94363e-06	0.0000000E+000	-100.054	8.05707e-05	0.000122123	0.000146307	56.5852	3.93844e-09
15.8576	3931.9	6297.48	7424.16	-58.021	66.3389	-0.00126292	3.5775e-05	1.59374	1.14672	1	13	0.132852	1.78945e-05	8.04514e-06	0.0000000E+000	-100.07	7.13359e-05	0.000114254	0.000134695	58.021	1.01513e-07
14.119	4132.12	6935.68	8073.3	-59.2145	67.1412	-0.00125841	4.13832e-05	1.62528	1.19951	1	13	0.132844	1.64548e-05	7.99529e-06	0.0000000E+000	-100.086	6.33974e-05	0.000106411	0.000123865	59.2145	-4.98468e-08
12.6008	4361.92	7618.15	8778.53	-60.2058	68.0319	-0.00125804	3.37241e-05	1.65795	1.24861	1	13	0.132836	1.5132e-05	7.97386e-06	0.0000000E+000	-100.07	5.66024e-05	9.88566e-05	0.000113914	60.2058	-2.14302e-08
11.2249	4626.71	8382.43	9574.53	-61.1034	68.7159	-0.0012614	3.00473e-05	1.69149	1.29651	1	13	0.132832	1.38735e-05	8.04292e-06	0.0000000E+000	-100.03	5.04705e-05	9.14398e-05	0.000104444	61.1034	6.90559e-08
10.0032	4921.68	9238.69	10467.9	-61.9546	69.4767	-0.00125483	3.79096e-05	1.72215	1.34145	1	13	0.132829	1.26892e-05	8.07301e-06	0.0000000E+000	-100.046	4.49156e-05	8.43128e-05	9.55304e-05	61.9546	3.00904e-08
8.91838	5251.42	10182.2	11456.6	-62.7177	70.321	-0.00125801	3.69214e-05	1.75265	1.3844	1	13	0.132827	1.15939e-05	8.01518e-06	0.0000000E+000	-100.07	4.00096e-05	7.75761e-05	8.72859e-05	62.7177	-5.78289e-08
7.93953	5645.53	11226.6	12566.2	-63.3036	71.2587	-0.00125501	3.65662e-05	1.78557	1.42517	1	13	0.132821	1.05697e-05	8.08326e-06	0.0000000E+000	-100.094	3.57518e-05	7.10955e-05	7.95787e-05	63.3036	6.80782e-08
7.07654	6100.74	12340	13765.7	-63.6929	71.817	-0.00126574	3.88884e-05	1.82256	1.46459	1	13	0.132819	9.64852e-06	8.07787e-06	0.0000000E+000	-100.118	3.21946e-05	6.51205e-05	7.26442e-05	63.6929	-5.38907e-09
6.31058	6631.23	13576.2	15109.1	-63.967	72.4372	-0.00125785	3.44566e-05	1.85769	1.49985	1	13	0.132813	8.79021e-06	8.04272e-06	0.0000000E+000	-100.046	2.90479e-05	5.947e-05	6.61851e-05	63.967	-3.51499e-08
5.6205	7232.51	14939.7	16598.3	-64.1677	73.1237	-0.00126045	2.844e-05	1.89541	1.53554	1	13	0.132814	8.00165e-06	8.00995e-06	0.0000000E+000	-100.054	2.62521e-05	5.42269e-05	6.02472e-05	64.1677	-3.27633e-08
5.01444	7977.17	16375.3	18215	-64.0271	73.8812	-0.00127361	3.5193e-05	1.93825	1.5665	1	13	0.132815	7.29153e-06	8.03989e-06	0.0000000E+000	-100.078	2.40432e-05	4.93551e-05	5.48999e-05	64.0271	2.99369e-08
4.46939	8835.5	17915.5	19975.8	-63.7486	74.7225	-0.00126134	4.43586e-05	1.98766	1.5988	1	13	0.132813	6.64872e-06	8.14032e-06	0.0000000E+000	-100.046	2.21423e-05	4.48974e-05	5.00606e-05	63.7486	1.00426e-07
3.97785	9814.29	19682.1	21993.3	-63.4973	75.6592	-0.00125082	3.21436e-05	2.03283	1.62803	1	13	0.132815	6.03888e-06	8.13946e-06	0.0000000E+000	-100.046	2.02898e-05	4.06903e-05	4.54684e-05	63.4973	-8.58282e-10
3.55114	10946.6	21432.9	24066.5	-62.9447	76.7004	-0.00124614	3.75524e-05	2.09109	1.65847	1	13	0.132811	5.51849e-06	8.04431e-06	0.0000000E+000	-100.062	1.88997e-05	3.70045e-05	4.15515e-05	62.9447	-9.5147e-08
3.1604	12346.5	23375	26435.4	-62.1574	77.8622	-0.0012487	4.0199e-05	2.1544	1.68446	1	13	0.13281	5.02396e-06	8.13676e-06	0.0000000E+000	-100.094	1.76674e-05	3.34489e-05	3.78281e-05	62.1574	9.2453e-08
2.81836	13798.1	25565.8	29051.6	-61.6438	79.5616	-0.00124061	2.76889e-05	2.20884	1.71057	1	14	0.13283	4.57219e-06	8.17727e-06	0.0000000E+000	-100.054	1.63485e-05	3.02913e-05	3.44215e-05	61.6438	4.05039e-08
2.51367	15461.7	27937.7	31930.9	-61.0383	81.0057	-0.00123817	2.38374e-05	2.26632	1.73492	1	14	0.132824	4.15973e-06	8.07114e-06	0.0000000E+000	-100.086	1.51648e-05	2.74012e-05	3.13177e-05	61.0383	-1.06127e-07
2.23982	17544.1	30167.4	34898	-59.8195	82.6204	-0.00123458	2.00674e-05	2.35542	1.76013	1	14	0.132825	3.80609e-06	8.11974e-06	0.0000000E+000	-100.054	1.44056e-05	2.47706e-05	2.86549e-05	59.8195	4.85971e-08
1.99706	19946.6	32481.6	38117.2	-58.4463	84.4247	-0.00123441	2.44048e-05	2.45353	1.78166	1	14	0.132822	3.48458e-06	8.19071e-06	0.0000000E+000	-100.11	1.37286e-05	2.23561e-05	2.62349e-05	58.4463	7.09738e-08
1.77961	22811.9	34474	41338.2	-56.5069	86.4418	-0.00123639	2.56826e-05	2.59419	1.8042	1	14	0.132818	3.21295e-06	8.07526e-06	0.0000000E+000	-100.054	1.33493e-05	2.01739e-05	2.41907e-05	56.5069	-1.15457e-07
1.58469	25794.1	37119.7	45201.9	-55.2049	88.701	-0.00123494	2.42497e-05	2.70566	1.82461	1	14	0.132815	2.93826e-06	8.25043e-06	0.0000000E+000	-100.094	1.26243e-05	1.81674e-05	2.2123e-05	55.2049	1.75171e-07
1.41224	29264.2	39351.6	49040.2	-53.3633	91.2302	-0.00123205	3.24432e-05	2.86385	1.84404	1	14	0.132816	2.70831e-06	8.11882e-06	0.0000000E+000	-100.086	1.21684e-05	1.63628e-05	2.03914e-05	53.3633	-1.3161e-07
1.25967	33098.3	41351	52966	-51.3254	94.0589	-0.00123377	2.92987e-05	3.05546	1.86232	1	14	0.132814	2.50753e-06	8.25226e-06	0.0000000E+000	-100.046	1.17981e-05	1.47398e-05	1.888e-05	51.3254	1.33445e-07
1.12249	37362.2	42898.2	56887.5	-48.9457	97.2272	-0.00123513	2.90359e-05	3.30522	1.87951	1	14	0.132813	2.33466e-06	8.20544e-06	0.0000000E+000	-100.102	1.15451e-05	1.32558e-05	1.75786e-05	48.9457	-4.6823e-08
1.00006	41852.5	43590.6	60429.9	-46.1654	100.776	-0.00122507	1.83401e-05	3.6509	1.89968	1	14	0.132814	2.19783e-06	8.25332e-06	0.0000000E+000	-100.086	1.14609e-05	1.19368e-05	1.65481e-05	46.1654	4.78754e-08