File: data/DE_49_9_30.mpt
EC-Lab ASCII FILE
Nb header lines : 75

Potentio Electrochemical Impedance Spectroscopy

Run on channel : 1 (SN 20909)
User :
CE vs. WE compliance from -10 V to 10 V
Electrode connection : standard
Ewe ctrl range : min = -10.00 V, max = 10.00 V
Safety Limits :
	Do not start on E overload
Acquisition started on : 01/22/2020 09:43:49
Technique started on : 01/22/2020 09:43:50
Saved on :
	File : DE_49_9_30.mpr
	Directory : P:\Chemistry\Data\VMP3\Kyler\DOE\DE_49\30C\
	Host : 10.0.4.99
Device : VMP3 (SN 0183)
Address : USB
EC-Lab for windows v11.33 (software)
Internet server v11.32 (firmware)
Command interpretor v11.33 (firmware)
Electrode material :
Initial state :
Electrolyte :
Comments :
Electrode surface area : 0.001 cm²
Characteristic mass : 0.001 g
Equivalent Weight : 0.000 g/eq.
Density : 0.000 g/cm3
Record Analogic IN 1
Cycle Definition : Charge/Discharge alternance
External device configuration :
   device type : Thermostat
   device name : Other
   Analog OUT :
      mode : E/V
      unit : T/°C
      max : 400.000 at 5.000 V
      min : -100.000 at 0.000 V
      current : 0.000
   Analog IN 1 :
      unit : T/°C
      max : 400.000 at 5.000 V
      min : -100.000 at 0.000 V
Mode                Single sine
E (V)               0.0000
vs.                 Eoc
tE (h:m:s)          0:00:0.0000
record              0
dI                  1.000
unit dI             mA
dt (s)              0.000
fi                  1.000
unit fi             MHz
ff                  1.000
unit ff             Hz
Nd                  20
Points              per decade
spacing             Logarithmic
Va (mV)             128.0
pw                  0.50
Na                  3
corr                0
E range min (V)     -10.000
E range max (V)     10.000
I Range             Auto
Bandwidth           5
nc cycles           0
goto Ns'            0
nr cycles           0
inc. cycle          1

freq/Hz	Re(Z)/Ohm	-Im(Z)/Ohm	|Z|/Ohm	Phase(Z)/deg	time/s	<Ewe>/V	<I>/mA	Cs/µF	Cp/µF	cycle number	I Range	|Ewe|/V	|I|/A	(Q-Qo)/mA.h	Analog OUT/V	Analog IN 1/V	Re(Y)/Ohm-1	Im(Y)/Ohm-1	|Y|/Ohm-1	Phase(Y)/deg	dq/mA.h
1.00002e+06	32.983	202.649	205.316	-80.7557	1.95148	-0.00180695	0.00316315	0.000785357	0.000765089	1	11	0.00575394	2.80248e-05	8.52487e-07	0.0000000E+000	-100.07	0.000782429	0.00480729	0.00487055	80.7557	8.52487e-07
891247	39.3795	222.467	225.925	-79.9619	2.5475	-0.00127308	0.00317845	0.000802707	0.00077832	1	11	0.00923945	4.08961e-05	1.27228e-06	0.0000000E+000	-100.11	0.000771509	0.00435849	0.00442624	79.9619	4.19792e-07
794333	46.1154	244.772	249.078	-79.3304	3.14349	-0.000828336	0.00328129	0.000818571	0.000790512	1	11	0.0140929	5.65802e-05	1.9055e-06	0.0000000E+000	-100.062	0.000743319	0.0039454	0.00401481	79.3304	6.33223e-07
707950	52.7119	270.316	275.407	-78.9657	3.73949	-0.000417602	0.00321765	0.000831662	0.000801196	1	11	0.0202912	7.3677e-05	2.4093e-06	0.0000000E+000	-100.046	0.000694958	0.00356386	0.00363099	78.9657	5.03798e-07
630957	59.4996	300.144	305.985	-78.7873	4.33448	-2.65973e-05	0.00326617	0.000840408	0.000808631	1	11	0.0276982	9.05216e-05	2.95523e-06	0.0000000E+000	-100.078	0.000635497	0.00320575	0.00326813	78.7873	5.45932e-07
562342	66.4414	333.094	339.656	-78.7194	4.93049	0.000332539	0.00325031	0.000849675	0.000817162	1	11	0.0360409	0.00010611	3.51582e-06	0.0000000E+000	-100.086	0.000575919	0.00288728	0.00294416	78.7194	5.60586e-07
501206	73.9895	369.759	377.089	-78.6844	5.5275	0.000635172	0.00324994	0.000858787	0.000825724	1	11	0.045215	0.000119906	4.31768e-06	0.0000000E+000	-100.078	0.000520335	0.00260035	0.0026519	78.6844	8.01859e-07
446686	82.1821	410.152	418.304	-78.6697	6.12349	0.000882254	0.0032337	0.000868707	0.000835176	1	11	0.055154	0.000131851	4.57875e-06	0.0000000E+000	-100.094	0.00046967	0.00234401	0.0023906	78.6697	2.61077e-07
398103	91.271	454.758	463.827	-78.6514	6.71949	0.0010393	0.00326263	0.000879112	0.000845071	1	11	0.0658836	0.000142044	5.22035e-06	0.0000000E+000	-100.11	0.00042425	0.00211382	0.00215598	78.6514	6.41595e-07
354810	101.664	504.394	514.538	-78.6043	7.3155	0.00114726	0.003182	0.000889313	0.000854595	1	11	0.0775517	0.000150721	5.84776e-06	0.0000000E+000	-100.046	0.000384001	0.00190518	0.00194349	78.6043	6.27409e-07
316230	152.491	590.637	610.004	-75.5234	8.21347	0.00115692	0.0012548	0.000852112	0.000798862	1	12	0.0386372	6.33392e-05	6.11535e-06	0.0000000E+000	-100.11	0.000409807	0.00158728	0.00163933	75.5234	2.67589e-07
281835	166.262	650.659	671.565	-75.666	8.80849	0.00119852	0.00122909	0.000867906	0.00081471	1	12	0.0476375	7.0935e-05	6.32734e-06	0.0000000E+000	-100.07	0.000368652	0.0014427	0.00148906	75.666	2.11989e-07
251188	181.482	716.961	739.573	-75.7952	9.40449	0.00123654	0.0012359	0.000883744	0.000830529	1	12	0.0585248	7.91332e-05	6.49399e-06	0.0000000E+000	-100.126	0.000331797	0.00131079	0.00135213	75.7952	1.66657e-07
223872	198.005	790.015	814.451	-75.9296	10.0005	0.00124613	0.00123943	0.000899882	0.000846694	1	12	0.0716138	8.7929e-05	6.84234e-06	0.0000000E+000	-100.062	0.000298501	0.00119098	0.00122782	75.9296	3.48342e-07
199544	215.942	870.595	896.977	-76.0695	10.5975	0.00130255	0.0012295	0.000916149	0.000863051	1	12	0.0873181	9.73471e-05	6.82588e-06	0.0000000E+000	-100.07	0.000268395	0.00108207	0.00111486	76.0695	-1.64569e-08
177832	235.69	959.601	988.121	-76.2006	11.1925	0.00133536	0.00125034	0.000932653	0.000879591	1	12	0.106092	0.000107368	6.84054e-06	0.0000000E+000	-100.062	0.000241391	0.000982811	0.00101202	76.2006	1.46618e-08
158486	256.965	1057.63	1088.4	-76.3439	11.6515	0.00135141	0.00126313	0.000949497	0.000896572	1	12	0.128299	0.000117878	6.93658e-06	0.0000000E+000	-100.078	0.000216918	0.000892804	0.000918778	76.3439	9.60413e-08
141256	279.646	1166.4	1199.46	-76.5177	12.2465	0.00143846	0.0012582	0.000965974	0.000913467	1	12	0.130023	0.000108401	7.23157e-06	0.0000000E+000	-100.03	0.000194375	0.000810736	0.000833711	76.5177	2.94984e-07
125909	304.51	1286.44	1321.99	-76.6828	12.8435	0.00148305	0.00126203	0.000982587	0.000930454	1	12	0.130756	9.89079e-05	7.35848e-06	0.0000000E+000	-100.102	0.000174238	0.000736093	0.000756433	76.6828	1.26913e-07
112205	331.213	1419.62	1457.74	-76.8672	13.4395	0.0015758	0.00123799	0.000999163	0.000947583	1	12	0.130796	8.97249e-05	7.64194e-06	0.0000000E+000	-100.062	0.000155864	0.00066805	0.000685991	76.8672	2.83463e-07
100004	360.051	1566.87	1607.71	-77.0587	14.0345	0.00158598	0.00122336	0.00101571	0.000964769	1	12	0.130603	8.12353e-05	7.90049e-06	0.0000000E+000	-100.062	0.0001393	0.000606205	0.000622004	77.0587	2.58544e-07
89129.3	391.36	1730.04	1773.76	-77.2534	14.6295	0.00162956	0.00122548	0.00103215	0.000981902	1	12	0.13025	7.34317e-05	7.91803e-06	0.0000000E+000	-100.134	0.000124391	0.000549881	0.000563775	77.2534	1.75464e-08
79433.3	425.527	1911.39	1958.19	-77.4491	15.2255	0.00162311	0.00123043	0.00104826	0.000998755	1	12	0.130026	6.64009e-05	8.14443e-06	0.0000000E+000	-100.07	0.000110973	0.000498473	0.000510676	77.4491	2.26397e-07
70795	462.071	2112.46	2162.41	-77.6617	15.8205	0.00164888	0.00123244	0.00106421	0.00101562	1	12	0.129633	5.99484e-05	8.32873e-06	0.0000000E+000	-100.07	9.88174e-05	0.000451766	0.000462447	77.6617	1.84306e-07
63093.8	502.671	2335.65	2389.13	-77.8542	16.4165	0.00165688	0.00120932	0.00108001	0.0010322	1	12	0.129338	5.41363e-05	8.49668e-06	0.0000000E+000	-100.07	8.80655e-05	0.000409194	0.000418563	77.8542	1.67946e-07
56237	546.345	2583.8	2640.93	-78.0606	16.8765	0.00166921	0.00122451	0.00109532	0.00104844	1	12	0.138844	5.25738e-05	8.61264e-06	0.0000000E+000	-100.038	7.83347e-05	0.000370463	0.000378655	78.0606	1.15962e-07
50122.5	594.4	2858.35	2919.5	-78.2527	17.4725	0.00168041	0.00119878	0.00111089	0.00106484	1	12	0.129989	4.45243e-05	8.9063e-06	0.0000000E+000	-100.07	6.97366e-05	0.00033535	0.000342524	78.2527	2.93661e-07
44666.7	646.225	3164.09	3229.41	-78.4568	17.9315	0.00167836	0.00118881	0.00112613	0.00108103	1	12	0.135333	4.19065e-05	9.02809e-06	0.0000000E+000	-100.11	6.19639e-05	0.000303391	0.000309655	78.4568	1.21787e-07
39814.1	705.988	3503.93	3574.34	-78.6083	18.3915	0.00167204	0.00120234	0.00114085	0.00109634	1	12	0.139309	3.89748e-05	9.17681e-06	0.0000000E+000	-100.078	5.52591e-05	0.00027426	0.000279772	78.6083	1.48721e-07
35481	769.324	3882.99	3958.47	-78.7933	18.9865	0.00168761	0.00122225	0.0011552	0.00111157	1	12	0.129358	3.26789e-05	9.44438e-06	0.0000000E+000	-100.07	4.90969e-05	0.000247806	0.000252623	78.7933	2.67573e-07
31621.1	841.398	4303.32	4384.81	-78.9369	19.4455	0.00168472	0.00119232	0.0011696	0.00112654	1	12	0.131196	2.99205e-05	9.61803e-06	0.0000000E+000	-100.07	4.37623e-05	0.000223822	0.00022806	78.9369	1.73641e-07
28188.1	1176.32	4830.63	4971.8	-76.3141	20.0725	0.00166824	0.000967032	0.00116883	0.0011034	1	13	0.1303	2.62079e-05	9.80394e-06	0.0000000E+000	-100.102	4.75883e-05	0.000195424	0.000201135	76.3141	1.85911e-07
25116.9	1268.57	5341.2	5489.78	-76.6394	20.6685	0.00167902	0.000962477	0.00118636	0.00112301	1	13	0.130263	2.37283e-05	9.98304e-06	0.0000000E+000	-100.03	4.20925e-05	0.000177226	0.000182157	76.6394	1.79105e-07
22389	1369.85	5907.4	6064.15	-76.9446	21.2645	0.00167243	0.000963446	0.00120334	0.00114194	1	13	0.129398	2.13383e-05	1.01124e-05	0.0000000E+000	-100.07	3.72506e-05	0.000160641	0.000164904	76.9446	1.29392e-07
19948.8	1484.66	6543.57	6709.88	-77.2166	21.7235	0.0016822	0.000969187	0.00121924	0.00115955	1	13	0.135026	2.01234e-05	1.023e-05	0.0000000E+000	-100.11	3.2976e-05	0.00014534	0.000149034	77.2166	1.17531e-07
17786.9	1614.92	7246.78	7424.54	-77.4371	22.1835	0.0016809	0.000976209	0.00123474	0.00117632	1	13	0.135683	1.82749e-05	1.03585e-05	0.0000000E+000	-100.062	2.92963e-05	0.000131464	0.000134688	77.4371	1.28487e-07
15847.7	1760.78	8035.57	8226.23	-77.6405	22.6425	0.0016847	0.000976311	0.00124979	0.00119253	1	13	0.133346	1.62099e-05	1.04683e-05	0.0000000E+000	-100.07	2.60199e-05	0.000118745	0.000121562	77.6405	1.09815e-07
14121.9	1928.08	8910.96	9117.17	-77.791	23.1015	0.0016872	0.000972746	0.00126475	0.00120818	1	13	0.129751	1.42315e-05	1.05807e-05	0.0000000E+000	-100.126	2.31955e-05	0.000107202	0.000109683	77.791	1.12402e-07
12590.9	2119.56	9885.07	10109.8	-77.8979	23.5605	0.00167527	0.000975315	0.00127874	0.00122253	1	13	0.125968	1.246e-05	1.07028e-05	0.0000000E+000	-100.07	2.07379e-05	9.6716e-05	9.89143e-05	77.8979	1.221e-07
11217.7	2345.37	10969.7	11217.6	-77.9316	24.0205	0.00167264	0.000970219	0.00129337	0.00123683	1	13	0.122463	1.09171e-05	1.08198e-05	0.0000000E+000	-100.078	1.86386e-05	8.71755e-05	8.91457e-05	77.9316	1.17074e-07
10002.2	2598.28	12169.1	12443.4	-77.9475	24.4795	0.00167983	0.000978711	0.00130757	0.00125056	1	13	0.119444	9.59899e-06	1.09397e-05	0.0000000E+000	-100.094	1.67806e-05	7.85925e-05	8.0364e-05	77.9475	1.19817e-07
8914.93	2890.94	13511.8	13817.6	-77.9232	24.9619	0.00168502	0.000974896	0.00132127	0.00126343	1	13	0.116896	8.45995e-06	1.10752e-05	0.0000000E+000	-100.038	1.51417e-05	7.07699e-05	7.23716e-05	77.9232	1.35533e-07
7944	3256.97	15015.7	15364.9	-77.7619	25.642	0.00168646	0.000967123	0.00133424	0.00127429	1	13	0.126592	8.23904e-06	1.12571e-05	0.0000000E+000	-100.086	1.3796e-05	6.36044e-05	6.50834e-05	77.7619	1.81927e-07
7082.23	3656.68	16644.6	17041.5	-77.6094	26.2189	0.00169841	0.000973915	0.00135014	0.00128797	1	13	0.124726	7.31897e-06	1.14079e-05	0.0000000E+000	-100.062	1.25913e-05	5.73135e-05	5.86803e-05	77.6094	1.50808e-07
6307.73	4143.01	18477.3	18936.1	-77.3621	26.8526	0.00172075	0.000988111	0.00136555	0.00130018	1	13	0.123203	6.50625e-06	1.15767e-05	0.0000000E+000	-100.062	1.1554e-05	5.15297e-05	5.28091e-05	77.3621	1.68798e-07
5621.06	4726.93	20511	21048.6	-77.0223	27.5533	0.00174441	0.000983923	0.00138044	0.00131082	1	13	0.121972	5.79479e-06	1.17621e-05	0.0000000E+000	-100.102	1.06692e-05	4.62956e-05	4.75091e-05	77.0223	1.85401e-07
5011.6	5415.42	22734.9	23371	-76.6019	28.3137	0.00175771	0.000992596	0.00139685	0.00132185	1	13	0.120986	5.17675e-06	1.19654e-05	0.0000000E+000	-100.07	9.9147e-06	4.16236e-05	4.27882e-05	76.6019	2.0332e-07
4466.43	6238.63	25214.8	25975.1	-76.103	29.0737	0.00176494	0.000993873	0.0014132	0.00133168	1	13	0.120188	4.62705e-06	1.21709e-05	0.0000000E+000	-100.03	9.24641e-06	3.73715e-05	3.84983e-05	76.103	2.05485e-07
3981.27	7209.6	27913.1	28829.1	-75.5177	29.8337	0.00175918	0.00100127	0.00143216	0.00134259	1	13	0.119564	4.14735e-06	1.23803e-05	0.0000000E+000	-100.078	8.6746e-06	3.3585e-05	3.46872e-05	75.5177	2.09384e-07
3546.6	8407.9	30924.6	32047.2	-74.7898	30.594	0.00175644	0.000990153	0.00145113	0.00135124	1	13	0.119051	3.71486e-06	1.25868e-05	0.0000000E+000	-100.07	8.18669e-06	3.01109e-05	3.1204e-05	74.7898	2.06444e-07
3161.01	9831.17	34152.5	35539.4	-73.941	31.3537	0.0017619	0.000990138	0.00147425	0.00136144	1	13	0.118638	3.33821e-06	1.27927e-05	0.0000000E+000	-100.062	7.78369e-06	2.70398e-05	2.81378e-05	73.941	2.05904e-07
2817.3	13926	37762.6	40248.6	-69.7572	32.3649	0.00174609	0.000970546	0.00149598	0.00131689	1	14	0.128238	3.18616e-06	1.30592e-05	0.0000000E+000	-100.102	8.59658e-06	2.3311e-05	2.48456e-05	69.7572	2.66525e-07
2510.8	15944.3	41458.7	44418.9	-68.9642	33.1247	0.00174484	0.000968977	0.00152894	0.00133195	1	14	0.126301	2.8434e-06	1.32644e-05	0.0000000E+000	-100.022	8.08105e-06	2.10126e-05	2.25129e-05	68.9642	2.05236e-07
2237.85	18336.3	45446.3	49006	-68.0273	33.885	0.00174736	0.000962923	0.00156491	0.00134583	1	14	0.124635	2.54327e-06	1.34695e-05	0.0000000E+000	-100.062	7.63508e-06	1.89235e-05	2.04057e-05	68.0273	2.05081e-07
1995.64	21186.6	49647	53978.6	-66.8899	34.6447	0.00174544	0.000958492	0.00160637	0.0013589	1	14	0.123236	2.28306e-06	1.36698e-05	0.0000000E+000	-100.078	7.27138e-06	1.70392e-05	1.85258e-05	66.8899	2.00283e-07
1778.29	24576.1	54163.5	59478.3	-65.5943	35.4049	0.00174672	0.00096338	0.00165238	0.00137027	1	14	0.122055	2.0521e-06	1.38722e-05	0.0000000E+000	-100.07	6.94698e-06	1.53105e-05	1.68129e-05	65.5943	2.02431e-07
1585.51	28440.8	58783.6	65302.3	-64.1813	36.1647	0.00173964	0.000965217	0.00170764	0.00138373	1	14	0.12109	1.85429e-06	1.40772e-05	0.0000000E+000	-100.062	6.66938e-06	1.37848e-05	1.53134e-05	64.1813	2.0494e-07
1411.84	33148.8	63602.3	71722.3	-62.472	36.9252	0.00174971	0.00096967	0.0017724	0.0013938	1	14	0.120302	1.67733e-06	1.42803e-05	0.0000000E+000	-100.03	6.44405e-06	1.23641e-05	1.39427e-05	62.472	2.03127e-07
1258.79	38432.2	68327.1	78394	-60.6434	37.685	0.00173826	0.000964526	0.00185043	0.0014057	1	14	0.11966	1.52639e-06	1.44819e-05	0.0000000E+000	-100.046	6.25359e-06	1.1118e-05	1.27561e-05	60.6434	2.01613e-07
1121.79	44435.4	73031.7	85487.6	-58.682	38.4434	0.00174682	0.000975072	0.00194265	0.00141779	1	14	0.119141	1.39367e-06	1.46863e-05	0.0000000E+000	-100.094	6.08027e-06	9.99321e-06	1.16976e-05	58.682	2.04377e-07
1000.32	51240.6	77413.5	92835.6	-56.4991	39.2027	0.00174602	0.000972323	0.00205525	0.00142912	1	14	0.118726	1.27889e-06	1.48903e-05	0.0000000E+000	-100.102	5.94545e-06	8.9823e-06	1.07717e-05	56.4991	2.03993e-07
891.427	58775.6	81365.4	100374	-54.1569	39.9614	0.00175344	0.000970778	0.00219429	0.00144189	1	14	0.118389	1.17948e-06	1.50937e-05	0.0000000E+000	-100.102	5.83387e-06	8.07605e-06	9.96276e-06	54.1569	2.03389e-07
794.238	66917.1	84873.8	108081	-51.7467	40.721	0.00174961	0.000969769	0.002361	0.00145595	1	14	0.118121	1.0929e-06	1.52984e-05	0.0000000E+000	-100.086	5.72849e-06	7.26568e-06	9.25234e-06	51.7467	2.04765e-07
707.509	75661.9	87596	115749	-49.1809	41.4824	0.00174156	0.000973075	0.00256805	0.00147075	1	14	0.117895	1.01854e-06	1.55026e-05	0.0000000E+000	-100.07	5.64735e-06	6.5381e-06	8.6394e-06	49.1809	2.04151e-07
631.01	84540.3	89527.5	123135	-46.6411	42.2404	0.00173994	0.000971377	0.00281726	0.00148928	1	14	0.117723	9.5605e-07	1.57059e-05	0.0000000E+000	-100.094	5.57571e-06	5.90464e-06	8.12116e-06	46.6411	2.03275e-07
562.339	93721.1	90767.1	130470	-44.0827	42.9969	0.00174546	0.000973476	0.00311812	0.00150915	1	14	0.117584	9.01234e-07	1.59093e-05	0.0000000E+000	-100.07	5.50578e-06	5.33224e-06	7.66462e-06	44.0827	2.03469e-07
501.444	102729	91076	137289	-41.559	43.7542	0.00175049	0.000969928	0.00348493	0.00153367	1	14	0.117473	8.55666e-07	1.61121e-05	0.0000000E+000	-100.07	5.45037e-06	4.83209e-06	7.28393e-06	41.559	2.02787e-07
446.859	111831	90738.1	144012	-39.0555	44.5109	0.00174044	0.000968666	0.00392518	0.00155827	1	14	0.117387	8.15119e-07	1.6316e-05	0.0000000E+000	-100.062	5.39216e-06	4.37514e-06	6.94386e-06	39.0555	2.03912e-07
398.089	120514	89555.1	150145	-36.6165	45.2737	0.00174618	0.000973305	0.00446426	0.0015882	1	14	0.117308	7.81298e-07	1.65211e-05	0.0000000E+000	-100.062	5.34579e-06	3.97253e-06	6.66021e-06	36.6165	2.05046e-07
354.66	128405	87936.5	155630	-34.4049	46.034	0.00174997	0.000980814	0.00510316	0.00162927	1	14	0.11726	7.53455e-07	1.6727e-05	0.0000000E+000	-100.054	5.30147e-06	3.63065e-06	6.42551e-06	34.4049	2.05949e-07
316.316	135718	85848.9	160591	-32.3156	46.7909	0.00174557	0.000981319	0.0058609	0.00167492	1	14	0.117206	7.29844e-07	1.69322e-05	0.0000000E+000	-100.054	5.26255e-06	3.32885e-06	6.22701e-06	32.3156	2.05148e-07
281.894	142853	83697.7	165566	-30.3661	47.5464	0.00174684	0.000980382	0.0067456	0.00172386	1	14	0.11717	7.07693e-07	1.7137e-05	0.0000000E+000	-100.054	5.21128e-06	3.0533e-06	6.03987e-06	30.3661	2.04801e-07
251.044	148893	81388.8	169686	-28.6622	48.3019	0.00175601	0.000979508	0.00778941	0.00179202	1	14	0.117141	6.90342e-07	1.73408e-05	0.0000000E+000	-100.07	5.1711e-06	2.82666e-06	5.89324e-06	28.6622	2.03828e-07
223.925	154284	79192.3	173421	-27.171	49.0647	0.00174605	0.000982633	0.008975	0.00187153	1	14	0.117117	6.75332e-07	1.75483e-05	0.0000000E+000	-100.086	5.12998e-06	2.63317e-06	5.76631e-06	27.171	2.07512e-07
199.553	159390	77169.2	177088	-25.8341	49.8262	0.00173923	0.000985658	0.0103352	0.00196258	1	14	0.117098	6.61243e-07	1.77567e-05	0.0000000E+000	-100.038	5.08255e-06	2.46074e-06	5.64691e-06	25.8341	2.0841e-07
177.781	163957	75369.1	180451	-24.6877	50.5942	0.00174872	0.00098031	0.0118779	0.0020721	1	14	0.117081	6.48824e-07	1.79658e-05	0.0000000E+000	-100.062	5.03516e-06	2.3146e-06	5.54168e-06	24.6877	2.09122e-07
158.428	167895	73995.9	183477	-23.7844	51.3607	0.00174848	0.000973957	0.0135762	0.00220815	1	14	0.117068	6.38052e-07	1.81729e-05	0.0000000E+000	-100.054	4.98737e-06	2.19807e-06	5.45026e-06	23.7844	2.07034e-07
141.311	172072	73023.3	186925	-22.9953	52.1139	0.00174533	0.000970337	0.0154235	0.00235379	1	14	0.117064	6.26263e-07	1.83751e-05	0.0000000E+000	-100.07	4.92463e-06	2.0899e-06	5.34973e-06	22.9953	2.02225e-07
125.846	175356	72434	189728	-22.4439	52.8694	0.00174898	0.000973739	0.0174598	0.00254485	1	14	0.117048	6.16929e-07	1.85786e-05	0.0000000E+000	-100.126	4.87148e-06	2.01225e-06	5.27071e-06	22.4439	2.0349e-07
112.19	179155	72329.7	193205	-21.9852	53.6148	0.00173846	0.000961386	0.0196133	0.00274882	1	14	0.117046	6.05812e-07	1.87775e-05	0.0000000E+000	-100.07	4.79947e-06	1.93767e-06	5.17585e-06	21.9852	1.98883e-07
100.032	182643	72978.6	196683	-21.7802	54.3747	0.00174477	0.000967285	0.0218015	0.00300153	1	14	0.117041	5.95073e-07	1.898e-05	0.0000000E+000	-100.07	4.72138e-06	1.88652e-06	5.08432e-06	21.7802	2.0257e-07
89.116	185750	73793.9	199871	-21.6667	55.1418	0.00174106	0.000957516	0.0242016	0.00329902	1	14	0.117037	5.85562e-07	1.91842e-05	0.0000000E+000	-100.078	4.64973e-06	1.84723e-06	5.00322e-06	21.6667	2.04174e-07
79.4155	189297	75054.5	203634	-21.6278	55.9052	0.00174275	0.000962587	0.0267017	0.00362738	1	14	0.11703	5.74707e-07	1.93874e-05	0.0000000E+000	-100.062	4.56505e-06	1.81e-06	4.91078e-06	21.6278	2.03177e-07
70.8387	192582	77433.8	207567	-21.9042	56.6564	0.00173505	0.000959101	0.0290147	0.00403798	1	14	0.117031	5.63824e-07	1.95866e-05	0.0000000E+000	-100.046	4.46993e-06	1.79728e-06	4.81773e-06	21.9042	1.99256e-07
63.0823	197208	80300.6	212930	-22.1555	57.4369	0.00175004	0.000961125	0.0314191	0.00446846	1	14	0.117054	5.49732e-07	1.97941e-05	0.0000000E+000	-100.086	4.34962e-06	1.77111e-06	4.69638e-06	22.1555	2.07497e-07
56.2418	199789	82731.6	216241	-22.4941	58.1813	0.00174533	0.000963322	0.034205	0.00500673	1	14	0.117022	5.41165e-07	1.99916e-05	0.0000000E+000	-100.046	4.27263e-06	1.76927e-06	4.62446e-06	22.4941	1.97436e-07
50.1444	203308	86359.4	220890	-23.0143	58.9382	0.0017459	0.000969834	0.0367526	0.00561767	1	14	0.117021	5.29773e-07	2.01936e-05	0.0000000E+000	-100.054	4.16682e-06	1.76994e-06	4.52715e-06	23.0143	2.02023e-07
44.6712	207777	89477.6	226224	-23.2988	59.7022	0.00174809	0.000969656	0.0398179	0.00622914	1	14	0.117016	5.17258e-07	2.03985e-05	0.0000000E+000	-100.07	4.05993e-06	1.74838e-06	4.42039e-06	23.2988	2.0489e-07
39.8089	212228	93786.9	232027	-23.8414	60.4647	0.00174725	0.000967061	0.0426282	0.00696474	1	14	0.117017	5.04327e-07	2.06026e-05	0.0000000E+000	-100.054	3.94207e-06	1.74207e-06	4.30984e-06	23.8414	2.04134e-07
35.4653	217010	99178.4	238600	-24.5614	61.2151	0.00174794	0.000974298	0.045248	0.00781796	1	14	0.117014	4.9042e-07	2.08045e-05	0.0000000E+000	-100.078	3.81189e-06	1.74212e-06	4.19112e-06	24.5614	2.01892e-07
31.6296	221461	103979	244656	-25.1507	61.9395	0.00174771	0.000963615	0.0483929	0.00874097	1	14	0.117011	4.78268e-07	2.09984e-05	0.0000000E+000	-100.062	3.69986e-06	1.73713e-06	4.08737e-06	25.1507	1.93901e-07
28.1701	226794	110605	252327	-25.9979	62.7437	0.00174497	0.00096554	0.0510809	0.00981471	1	14	0.117012	4.6373e-07	2.12128e-05	0.0000000E+000	-100.086	3.56208e-06	1.73718e-06	3.96311e-06	25.9979	2.14386e-07
25.1044	232086	116248	259571	-26.6055	63.4999	0.00173936	0.000978622	0.0545362	0.0109381	1	14	0.117008	4.50775e-07	2.14171e-05	0.0000000E+000	-100.07	3.44457e-06	1.72533e-06	3.85251e-06	26.6055	2.04258e-07
22.3854	237962	123028	267884	-27.3392	64.1864	0.00173552	0.000977439	0.05779	0.0121889	1	14	0.117009	4.3679e-07	2.16036e-05	0.0000000E+000	-100.046	3.316e-06	1.71439e-06	3.73297e-06	27.3392	1.86531e-07
19.9553	244193	130934	277081	-28.1998	64.9482	0.0017338	0.000976457	0.060913	0.0136019	1	14	0.117011	4.22297e-07	2.18095e-05	0.0000000E+000	-100.046	3.18068e-06	1.70545e-06	3.60905e-06	28.1998	2.05865e-07
17.7961	250927	139377	287037	-29.0499	65.7925	0.00174623	0.000974281	0.0641659	0.015129	1	14	0.117007	4.07638e-07	2.20373e-05	0.0000000E+000	-100.086	3.04559e-06	1.69167e-06	3.48388e-06	29.0499	2.27807e-07
15.8576	257732	147401	296906	-29.7659	66.5149	0.00173744	0.000970533	0.0680898	0.0167821	1	14	0.117001	3.94069e-07	2.22296e-05	0.0000000E+000	-100.11	2.92369e-06	1.67211e-06	3.36807e-06	29.7659	1.92341e-07
14.119	265475	157757	308811	-30.7207	67.3173	0.00174322	0.000981128	0.0714544	0.0186475	1	14	0.117004	3.78887e-07	2.24479e-05	0.0000000E+000	-100.062	2.7838e-06	1.65426e-06	3.23823e-06	30.7207	2.18283e-07
12.6008	272514	167096	319664	-31.5151	68.2079	0.00174524	0.000969811	0.0755885	0.0206538	1	14	0.117003	3.6602e-07	2.2688e-05	0.0000000E+000	-100.038	2.66687e-06	1.63523e-06	3.12828e-06	31.5151	2.4008e-07
11.2249	281289	178858	333337	-32.4503	68.8919	0.00173388	0.000966381	0.079274	0.0228234	1	14	0.11701	3.51025e-07	2.28702e-05	0.0000000E+000	-100.038	2.53154e-06	1.60969e-06	2.99997e-06	32.4503	1.82244e-07
10.0032	288696	192408	346938	-33.6823	69.6527	0.00174437	0.000965587	0.082691	0.0254331	1	14	0.117007	3.37255e-07	2.30724e-05	0.0000000E+000	-100.102	2.39848e-06	1.59852e-06	2.88236e-06	33.6823	2.02177e-07
8.91838	298870	202644	361093	-34.1385	70.497	0.00174571	0.000964065	0.0880645	0.0277351	1	14	0.116999	3.24013e-07	2.33008e-05	0.0000000E+000	-100.094	2.29216e-06	1.55416e-06	2.76937e-06	34.1385	2.28365e-07
7.93953	309190	219405	379127	-35.36	71.4347	0.00174688	0.000963773	0.0913647	0.0305987	1	14	0.117001	3.08607e-07	2.35488e-05	0.0000000E+000	-100.046	2.15108e-06	1.52643e-06	2.63764e-06	35.36	2.48018e-07
7.07654	319623	233695	395945	-36.1727	71.993	0.00173276	0.000966446	0.0962387	0.0335258	1	14	0.117006	2.9551e-07	2.36987e-05	0.0000000E+000	-100.046	2.03877e-06	1.49066e-06	2.5256e-06	36.1727	1.49925e-07
6.31058	329649	248061	412557	-36.9615	72.6132	0.0017264	0.000966408	0.10167	0.0367572	1	14	0.116995	2.83585e-07	2.38651e-05	0.0000000E+000	-100.094	1.9368e-06	1.45744e-06	2.42391e-06	36.9615	1.66379e-07
5.6205	345285	266218	435998	-37.6326	73.2996	0.00173363	0.000968556	0.106367	0.0396565	1	14	0.117005	2.68361e-07	2.40507e-05	0.0000000E+000	-100.038	1.81639e-06	1.40046e-06	2.29359e-06	37.6326	1.85613e-07
5.01444	355431	288598	457843	-39.0754	74.0572	0.00174393	0.000970464	0.109978	0.0436976	1	14	0.117005	2.55558e-07	2.42541e-05	0.0000000E+000	-100.062	1.6956e-06	1.37677e-06	2.18416e-06	39.0754	2.03383e-07
4.46939	369529	310375	482581	-40.0276	74.8985	0.00174894	0.000965637	0.114732	0.047459	1	14	0.116995	2.42436e-07	2.44759e-05	0.0000000E+000	-100.078	1.58675e-06	1.33274e-06	2.07219e-06	40.0276	2.21819e-07
3.97785	385890	332501	509380	-40.7497	75.8352	0.00174171	0.000962464	0.120331	0.051272	1	14	0.117003	2.29696e-07	2.47247e-05	0.0000000E+000	-100.078	1.48723e-06	1.28147e-06	1.96317e-06	40.7497	2.48803e-07
3.55114	400624	359323	538156	-41.8892	76.8764	0.00173972	0.000966356	0.124729	0.0556059	1	14	0.117005	2.17418e-07	2.50074e-05	0.0000000E+000	-100.062	1.38331e-06	1.2407e-06	1.8582e-06	41.8892	2.82699e-07
3.1604	417751	384878	568020	-42.6546	78.0392	0.00174533	0.000966349	0.130845	0.0600722	1	14	0.117003	2.05984e-07	2.53161e-05	0.0000000E+000	-100.054	1.29476e-06	1.19288e-06	1.7605e-06	42.6546	3.08718e-07
2.81836	425967	413804	593870	-44.1702	79.3347	0.00174434	0.000947667	0.136467	0.0662576	1	14	0.117001	1.97015e-07	2.56555e-05	0.0000000E+000	-100.062	1.2078e-06	1.17331e-06	1.68387e-06	44.1702	3.39347e-07
2.51367	453589	440942	632592	-44.19	80.7787	0.00174078	0.000947542	0.143592	0.0697661	1	14	0.117	1.84953e-07	2.60402e-05	0.0000000E+000	-100.046	1.13348e-06	1.10188e-06	1.5808e-06	44.19	3.84778e-07
2.23982	475431	478952	674856	-45.2114	82.3934	0.00175174	0.000952143	0.148359	0.0747269	1	14	0.117004	1.73376e-07	2.64619e-05	0.0000000E+000	-100.07	1.04392e-06	1.05165e-06	1.4818e-06	45.2114	4.21706e-07