File: data/DE_49_1_30.mpt
EC-Lab ASCII FILE
Nb header lines : 75

Potentio Electrochemical Impedance Spectroscopy

Run on channel : 1 (SN 20909)
User :
CE vs. WE compliance from -10 V to 10 V
Electrode connection : standard
Ewe ctrl range : min = -10.00 V, max = 10.00 V
Safety Limits :
	Do not start on E overload
Acquisition started on : 01/22/2020 09:36:56
Technique started on : 01/22/2020 09:36:57
Saved on :
	File : DE_49_1_30.mpr
	Directory : P:\Chemistry\Data\VMP3\Kyler\DOE\DE_49\30C\
	Host : 10.0.4.99
Device : VMP3 (SN 0183)
Address : USB
EC-Lab for windows v11.33 (software)
Internet server v11.32 (firmware)
Command interpretor v11.33 (firmware)
Electrode material :
Initial state :
Electrolyte :
Comments :
Electrode surface area : 0.001 cm²
Characteristic mass : 0.001 g
Equivalent Weight : 0.000 g/eq.
Density : 0.000 g/cm3
Record Analogic IN 1
Cycle Definition : Charge/Discharge alternance
External device configuration :
   device type : Thermostat
   device name : Other
   Analog OUT :
      mode : E/V
      unit : T/°C
      max : 400.000 at 5.000 V
      min : -100.000 at 0.000 V
      current : 0.000
   Analog IN 1 :
      unit : T/°C
      max : 400.000 at 5.000 V
      min : -100.000 at 0.000 V
Mode                Single sine
E (V)               0.0000
vs.                 Eoc
tE (h:m:s)          0:00:0.0000
record              0
dI                  1.000
unit dI             mA
dt (s)              0.000
fi                  1.000
unit fi             MHz
ff                  1.000
unit ff             Hz
Nd                  20
Points              per decade
spacing             Logarithmic
Va (mV)             128.0
pw                  0.50
Na                  3
corr                0
E range min (V)     -10.000
E range max (V)     10.000
I Range             Auto
Bandwidth           5
nc cycles           0
goto Ns'            0
nr cycles           0
inc. cycle          1

freq/Hz	Re(Z)/Ohm	-Im(Z)/Ohm	|Z|/Ohm	Phase(Z)/deg	time/s	<Ewe>/V	<I>/mA	Cs/µF	Cp/µF	cycle number	I Range	|Ewe|/V	|I|/A	(Q-Qo)/mA.h	Analog OUT/V	Analog IN 1/V	Re(Y)/Ohm-1	Im(Y)/Ohm-1	|Y|/Ohm-1	Phase(Y)/deg	dq/mA.h
1.00002e+06	22.1859	168.811	170.263	-82.5128	1.95148	-0.00455759	0.00316819	0.000942782	0.000926775	1	11	0.00503482	2.95709e-05	7.739e-07	0.0000000E+000	-100.07	0.000765312	0.00582321	0.00587328	82.5128	7.739e-07
891247	27.9877	183.863	185.981	-81.3448	2.54749	-0.00402912	0.00317696	0.000971245	0.000949249	1	11	0.0082109	4.41492e-05	1.19587e-06	0.0000000E+000	-100.078	0.000809156	0.00531567	0.0053769	81.3448	4.21974e-07
794333	33.5488	202.233	204.997	-80.5809	3.14348	-0.00360022	0.00317211	0.000990754	0.000964218	1	11	0.0127967	6.24238e-05	1.82497e-06	0.0000000E+000	-100.102	0.000798331	0.00481236	0.00487813	80.5809	6.29099e-07
707950	38.8476	223.049	226.406	-80.1201	3.73848	-0.003197	0.00313385	0.0010079	0.000978228	1	11	0.0188298	8.31683e-05	2.33297e-06	0.0000000E+000	-100.054	0.000757858	0.00435134	0.00441684	80.1201	5.07993e-07
630957	45.0232	246.912	250.983	-79.6659	4.3345	-0.0027679	0.00322288	0.0010216	0.00098872	1	11	0.0261898	0.000104349	2.81878e-06	0.0000000E+000	-100.094	0.000714739	0.0039197	0.00398433	79.6659	4.85818e-07
562342	50.8905	273.814	278.503	-79.4713	4.92949	-0.00241617	0.00319973	0.00103363	0.000999114	1	11	0.034645	0.000124397	3.51898e-06	0.0000000E+000	-100.062	0.00065611	0.00353017	0.00359063	79.4713	7.00198e-07
501206	57.4751	303.674	309.065	-79.2826	5.52649	-0.00211971	0.0032839	0.00104567	0.00100951	1	11	0.0439972	0.000142356	4.01221e-06	0.0000000E+000	-100.086	0.0006017	0.00317912	0.00323556	79.2826	4.93234e-07
446686	64.709	336.838	342.997	-79.1255	6.12147	-0.00189032	0.00321149	0.00105778	0.00102014	1	11	0.0541418	0.000157849	4.74375e-06	0.0000000E+000	-100.07	0.000550027	0.00286312	0.00291548	79.1255	7.31538e-07
398103	72.7337	373.181	380.203	-78.9712	6.71747	-0.00173351	0.0033022	0.00107128	0.00103208	1	11	0.0650812	0.000171175	4.96447e-06	0.0000000E+000	-100.038	0.000503159	0.0025816	0.00263018	78.9712	2.20721e-07
354810	81.9337	413.383	421.425	-78.7891	7.31247	-0.00161892	0.00321149	0.0010851	0.00104409	1	11	0.0769256	0.000182537	5.56701e-06	0.0000000E+000	-100.102	0.000461341	0.00232762	0.0023729	78.7891	6.02541e-07
316230	92.1883	457.292	466.491	-78.6021	7.90748	-0.00155765	0.0032449	0.00110059	0.0010576	1	11	0.0897739	0.000192445	5.97136e-06	0.0000000E+000	-100.086	0.000423632	0.00210139	0.00214366	78.6021	4.04344e-07
281835	103.58	505.61	516.111	-78.4225	8.50449	-0.00150176	0.00323221	0.00111689	0.0010719	1	11	0.103708	0.000200942	6.77524e-06	0.0000000E+000	-100.07	0.000388855	0.00189815	0.00193757	78.4225	8.0388e-07
251188	145.188	581.599	599.447	-75.9834	9.26648	-0.00155914	0.0012622	0.00108943	0.00102552	1	12	0.0512423	8.54826e-05	7.17922e-06	0.0000000E+000	-100.046	0.000404045	0.00161853	0.0016682	75.9834	4.03977e-07
223872	159.762	640.33	659.959	-75.9908	9.8625	-0.0015001	0.00123338	0.00111024	0.00104518	1	12	0.062933	9.5359e-05	7.58177e-06	0.0000000E+000	-100.086	0.000366808	0.00147018	0.00151525	75.9908	4.02554e-07
199544	175.279	704.303	725.786	-76.0248	10.4595	-0.00147983	0.00125322	0.00113246	0.00106641	1	12	0.0770652	0.000106182	7.8239e-06	0.0000000E+000	-100.094	0.000332745	0.00133703	0.00137782	76.0248	2.42131e-07
177832	192.038	775.196	798.629	-76.0863	11.0555	-0.00144419	0.00126621	0.00115451	0.00108776	1	12	0.094157	0.000117898	8.00992e-06	0.0000000E+000	-100.102	0.000301091	0.00121541	0.00125215	76.0863	1.86022e-07
158486	210.123	853.108	878.604	-76.1633	11.6505	-0.00143134	0.00121744	0.00117713	0.0011098	1	12	0.11467	0.000130513	8.01605e-06	0.0000000E+000	-100.078	0.000272199	0.00110514	0.00113817	76.1633	6.12322e-09
141256	229.36	939.19	966.791	-76.2764	12.1105	-0.00141721	0.00123872	0.00119966	0.00113214	1	12	0.139142	0.000143921	8.28168e-06	0.0000000E+000	-100.062	0.000245388	0.00100482	0.00103435	76.2764	2.65639e-07
125909	250.09	1034.5	1064.3	-76.4095	12.7075	-0.00129557	0.00123099	0.00122189	0.00115442	1	12	0.131508	0.000123563	8.45099e-06	0.0000000E+000	-100.054	0.000220785	0.000913277	0.000939585	76.4095	1.69305e-07
112205	272.108	1140.05	1172.07	-76.5757	13.3035	-0.00120134	0.00124626	0.00124418	0.00117713	1	12	0.131142	0.000111889	8.58322e-06	0.0000000E+000	-100.118	0.000198077	0.000829879	0.00085319	76.5757	1.32225e-07
100004	295.652	1256.81	1291.12	-76.7624	13.8995	-0.00119275	0.00124874	0.00126629	0.00119989	1	12	0.130836	0.000101336	8.80245e-06	0.0000000E+000	-100.07	0.000177357	0.000753942	0.000774522	76.7624	2.19235e-07
89129.3	321.133	1386.25	1422.96	-76.9572	14.4945	-0.00116815	0.0012314	0.00128812	0.00122252	1	12	0.130567	9.17568e-05	9.12843e-06	0.0000000E+000	-100.046	0.000158598	0.000684629	0.000702758	76.9572	3.25981e-07
79433.3	348.191	1529.87	1568.99	-77.1781	15.0905	-0.0011379	0.00120837	0.00130968	0.00124518	1	12	0.130293	8.30426e-05	9.3184e-06	0.0000000E+000	-100.102	0.000141442	0.00062146	0.000637353	77.1781	1.89968e-07
70795	377.598	1689.29	1730.98	-77.4001	15.6855	-0.00111329	0.00126358	0.0013308	0.00126747	1	12	0.129968	7.50838e-05	9.58141e-06	0.0000000E+000	-100.078	0.000126022	0.000563795	0.000577708	77.4001	2.63008e-07
63093.8	409.349	1866.8	1911.16	-77.6321	16.2815	-0.00109514	0.00125053	0.00135125	0.00128926	1	12	0.129572	6.77976e-05	9.78506e-06	0.0000000E+000	-100.094	0.000112073	0.0005111	0.000523244	77.6321	2.03652e-07
56237	443.832	2063.26	2110.45	-77.8599	16.7415	-0.00109958	0.00122657	0.00137166	0.00131099	1	12	0.14063	6.66348e-05	9.92219e-06	0.0000000E+000	-100.054	9.96478e-05	0.000463236	0.000473832	77.8599	1.37128e-07
50122.5	480.949	2282.31	2332.43	-78.1002	17.3375	-0.00107696	0.00123907	0.00139128	0.00133212	1	12	0.130173	5.581e-05	1.01336e-05	0.0000000E+000	-100.078	8.84058e-05	0.000419523	0.000428737	78.1002	2.11449e-07
44666.7	522.087	2525.77	2579.16	-78.3212	17.7975	-0.00107995	0.00123538	0.00141073	0.00135292	1	12	0.136033	5.27429e-05	1.02455e-05	0.0000000E+000	-100.094	7.84846e-05	0.000379696	0.000387723	78.3212	1.11857e-07
39814.1	565.818	2795.92	2852.6	-78.5594	18.2575	-0.00108735	0.0012409	0.00142974	0.00137349	1	12	0.140178	4.91404e-05	1.04263e-05	0.0000000E+000	-100.07	6.95335e-05	0.000343592	0.000350557	78.5594	1.80826e-07
35481	616.107	3096.77	3157.46	-78.7478	18.8525	-0.0010737	0.00122998	0.00144849	0.00139334	1	12	0.129508	4.10164e-05	1.05801e-05	0.0000000E+000	-100.086	6.17987e-05	0.000310622	0.00031671	78.7478	1.53748e-07
31621.1	670.353	3432.7	3497.54	-78.9501	19.3125	-0.0010789	0.0012188	0.00146625	0.00141238	1	12	0.131092	3.74811e-05	1.07041e-05	0.0000000E+000	-100.086	5.47996e-05	0.000280614	0.000285915	78.9501	1.24021e-07
28188.1	731.246	3805.21	3874.84	-79.1221	19.7725	-0.00108552	0.00124312	0.0014838	0.00143096	1	12	0.132024	3.40722e-05	1.0876e-05	0.0000000E+000	-100.086	4.8703e-05	0.000253438	0.000258075	79.1221	1.71956e-07
25116.9	799.108	4218.81	4293.82	-79.2744	20.2325	-0.00107866	0.00122888	0.00150198	0.00144996	1	12	0.132532	3.08657e-05	1.10507e-05	0.0000000E+000	-100.046	4.33428e-05	0.000228824	0.000232893	79.2744	1.74661e-07
22389	1081.3	4717.45	4839.79	-77.0901	20.9935	-0.00104601	0.000990459	0.00150688	0.00143166	1	13	0.131199	2.71085e-05	1.11759e-05	0.0000000E+000	-100.126	4.61629e-05	0.000201398	0.000206621	77.0901	1.25162e-07
19948.8	1169.25	5225.74	5354.95	-77.3879	21.5895	-0.00104534	0.000989315	0.00152671	0.00145392	1	13	0.129426	2.41694e-05	1.13905e-05	0.0000000E+000	-100.062	4.07752e-05	0.000182237	0.000186743	77.3879	2.14651e-07
17786.9	1264.98	5788.26	5924.87	-77.6723	22.0485	-0.00104599	0.00098566	0.00154587	0.0014754	1	13	0.133021	2.24513e-05	1.15057e-05	0.0000000E+000	-100.07	3.6035e-05	0.000164888	0.00016878	77.6723	1.15188e-07
15847.7	1376.27	6419.52	6565.4	-77.8996	22.5075	-0.00104045	0.000984048	0.00156441	0.00149567	1	13	0.131633	2.00496e-05	1.16449e-05	0.0000000E+000	-100.086	3.19288e-05	0.00014893	0.000152314	77.8996	1.39244e-07
14121.9	1501.47	7120.49	7277.07	-78.0927	22.9665	-0.00104233	0.000987178	0.00158277	0.00151539	1	13	0.127752	1.75555e-05	1.17574e-05	0.0000000E+000	-100.07	2.83533e-05	0.000134461	0.000137418	78.0927	1.12442e-07
12590.9	1644.53	7896.76	8066.18	-78.2361	23.4265	-0.00105086	0.000996398	0.00160071	0.00153418	1	13	0.123211	1.5275e-05	1.18952e-05	0.0000000E+000	-100.086	2.52758e-05	0.00012137	0.000123974	78.2361	1.37761e-07
11217.7	1807.88	8767.68	8952.13	-78.349	23.8855	-0.00104442	0.000998274	0.0016182	0.0015522	1	13	0.118858	1.32771e-05	1.2034e-05	0.0000000E+000	-100.078	2.25588e-05	0.000109404	0.000111705	78.349	1.38812e-07
10002.2	1995.41	9728.05	9930.59	-78.4083	24.4805	-0.00105058	0.000999704	0.00163568	0.00156964	1	13	0.126757	1.27643e-05	1.22004e-05	0.0000000E+000	-100.118	2.0234e-05	9.86451e-05	0.000100699	78.4083	1.66428e-07
8914.93	2215.7	10795.5	11020.5	-78.4015	24.9629	-0.00105013	0.00100666	0.00165371	0.00158686	1	13	0.123282	1.11866e-05	1.2327e-05	0.0000000E+000	-100.07	1.82434e-05	8.88868e-05	9.07397e-05	78.4015	1.26626e-07
7944	2471.26	11984.4	12236.5	-78.3486	25.489	-0.00105481	0.00101827	0.00167173	0.00160354	1	13	0.120438	9.84248e-06	1.24832e-05	0.0000000E+000	-100.094	1.65045e-05	8.00386e-05	8.17225e-05	78.3486	1.56165e-07
7082.23	2773.36	13294.3	13580.5	-78.2164	26.0659	-0.00103775	0.00101537	0.00169038	0.00161988	1	13	0.118139	8.69916e-06	1.26392e-05	0.0000000E+000	-100.102	1.50374e-05	7.20831e-05	7.36349e-05	78.2164	1.56044e-07
6307.73	3124.41	14764.6	15091.5	-78.0516	26.7005	-0.0010287	0.00101581	0.00170894	0.00163569	1	13	0.11629	7.70561e-06	1.28202e-05	0.0000000E+000	-100.046	1.37183e-05	6.48267e-05	6.62623e-05	78.0516	1.81011e-07
5621.06	3531.36	16376.1	16752.6	-77.831	27.6053	-0.00100772	0.00102658	0.00172898	0.00165216	1	13	0.126581	7.55595e-06	1.30844e-05	0.0000000E+000	-100.062	1.25829e-05	5.83511e-05	5.96924e-05	77.831	2.64183e-07
5011.6	4017.12	18148.7	18588	-77.5191	28.3657	-0.000994224	0.00103639	0.00174984	0.00166811	1	13	0.125271	6.73937e-06	1.33038e-05	0.0000000E+000	-100.078	1.16266e-05	5.25269e-05	5.37982e-05	77.5191	2.19389e-07
4466.43	4590.63	20109.2	20626.5	-77.1406	29.1257	-0.000988723	0.00102699	0.00177201	0.00168424	1	13	0.124221	6.0224e-06	1.35209e-05	0.0000000E+000	-100.022	1.079e-05	4.72654e-05	4.84814e-05	77.1406	2.17137e-07
3981.27	5250.78	22263.7	22874.5	-76.7296	29.8857	-0.000991016	0.00102369	0.00179556	0.00170095	1	13	0.12339	5.39421e-06	1.37332e-05	0.0000000E+000	-100.062	1.00351e-05	4.25494e-05	4.37168e-05	76.7296	2.12289e-07
3546.6	6041.79	24634.5	25364.6	-76.2198	30.646	-0.000997506	0.00102375	0.00182165	0.00171829	1	13	0.122707	4.83771e-06	1.39487e-05	0.0000000E+000	-100.07	9.39095e-06	3.82902e-05	3.9425e-05	76.2198	2.15497e-07
3161.01	6970.26	27225.1	28103.2	-75.6394	31.4057	-0.000993851	0.00102541	0.00184937	0.00173561	1	13	0.122174	4.34733e-06	1.41636e-05	0.0000000E+000	-100.054	8.82546e-06	3.44713e-05	3.55831e-05	75.6394	2.14896e-07
2817.3	8057.46	30053.2	31114.6	-74.9916	32.1659	-0.000991501	0.0010198	0.00187973	0.00175368	1	13	0.121744	3.91275e-06	1.43744e-05	0.0000000E+000	-100.062	8.32279e-06	3.10429e-05	3.21392e-05	74.9916	2.10802e-07
2510.8	9334.51	33094.4	34385.6	-74.2485	32.9257	-0.000990196	0.00100624	0.00191537	0.00177422	1	13	0.121397	3.53045e-06	1.45882e-05	0.0000000E+000	-100.03	7.89475e-06	2.79899e-05	2.90819e-05	74.2485	2.13774e-07
2237.85	12711.7	36374.8	38532	-70.7373	33.9369	-0.000995827	0.000978655	0.00195518	0.00174239	1	14	0.130409	3.38443e-06	1.48555e-05	0.0000000E+000	-100.11	8.56171e-06	2.44995e-05	2.59524e-05	70.7373	2.67298e-07
1995.64	14443.2	39864.5	42400.3	-70.0841	34.6967	-0.000998158	0.000974033	0.00200056	0.00176842	1	14	0.128526	3.03125e-06	1.50602e-05	0.0000000E+000	-100.062	8.0339e-06	2.21742e-05	2.35847e-05	70.0841	2.04705e-07
1778.29	16394.6	43622.4	46601.5	-69.4023	35.457	-0.00099965	0.000974823	0.00205167	0.00179774	1	14	0.126974	2.72468e-06	1.52632e-05	0.0000000E+000	-100.086	7.54922e-06	2.00868e-05	2.14586e-05	69.4023	2.02982e-07
1585.51	18663.1	47602.2	51130	-68.5917	36.2167	-0.00100914	0.000965373	0.00210875	0.00182779	1	14	0.125682	2.45809e-06	1.54689e-05	0.0000000E+000	-100.078	7.1389e-06	1.82085e-05	1.9558e-05	68.5917	2.05759e-07
1411.84	21303.9	51907.2	56108.9	-67.6857	36.9782	-0.00100722	0.000971571	0.00217174	0.00185866	1	14	0.124619	2.22101e-06	1.56717e-05	0.0000000E+000	-100.054	6.76697e-06	1.64878e-05	1.78225e-05	67.6857	2.028e-07
1258.79	24250.4	56368	61363.1	-66.7219	37.738	-0.000997711	0.000970858	0.00224302	0.00189271	1	14	0.123756	2.01678e-06	1.58769e-05	0.0000000E+000	-100.054	6.44026e-06	1.49699e-05	1.62964e-05	66.7219	2.05111e-07
1121.79	27576.7	61072.9	67010.2	-65.699	38.4964	-0.00100491	0.000974342	0.00232305	0.00192962	1	14	0.123064	1.83649e-06	1.60799e-05	0.0000000E+000	-100.07	6.1413e-06	1.36008e-05	1.49231e-05	65.699	2.03004e-07
1000.32	31278.5	65937.4	72980	-64.6219	39.2557	-0.00100728	0.000981323	0.00241296	0.00196972	1	14	0.122491	1.67842e-06	1.62839e-05	0.0000000E+000	-100.046	5.8727e-06	1.23801e-05	1.37024e-05	64.6219	2.04068e-07
891.427	35426.8	71011.9	79358.4	-63.4861	40.0144	-0.00100523	0.000977125	0.00251422	0.00201317	1	14	0.122033	1.53774e-06	1.64886e-05	0.0000000E+000	-100.062	5.62531e-06	1.12758e-05	1.26011e-05	63.4861	2.04705e-07
794.238	39934.9	76237.1	86063.3	-62.3533	40.774	-0.000997562	0.000981686	0.00262847	0.00206253	1	14	0.121653	1.41353e-06	1.6695e-05	0.0000000E+000	-100.07	5.39159e-06	1.02927e-05	1.16194e-05	62.3533	2.06384e-07
707.509	44889.8	81706.3	93225.6	-61.2154	41.5365	-0.00100398	0.000980701	0.00275317	0.00211482	1	14	0.121347	1.30165e-06	1.69014e-05	0.0000000E+000	-100.03	5.16509e-06	9.40124e-06	1.07267e-05	61.2154	2.06402e-07
631.01	50048.3	87197.5	100540	-60.1457	42.2944	-0.00100077	0.0009779	0.00289254	0.00217577	1	14	0.121111	1.2046e-06	1.71064e-05	0.0000000E+000	-100.054	4.95124e-06	8.62638e-06	9.94631e-06	60.1457	2.04942e-07
562.339	55720.4	92755.8	108205	-59.0059	43.0509	-0.0010061	0.000980742	0.00305127	0.00224215	1	14	0.120907	1.11738e-06	1.73117e-05	0.0000000E+000	-100.054	4.75901e-06	7.92215e-06	9.24168e-06	59.0059	2.05354e-07
501.444	61682.4	98481.3	116204	-57.9396	43.8082	-0.000999576	0.000978491	0.00322288	0.00231479	1	14	0.120747	1.0391e-06	1.75164e-05	0.0000000E+000	-100.022	4.56796e-06	7.29314e-06	8.60559e-06	57.9396	2.04677e-07
446.859	67867.5	104479	124587	-56.993	44.5649	-0.000998196	0.000978282	0.00340895	0.00239737	1	14	0.120616	9.68126e-07	1.77217e-05	0.0000000E+000	-100.11	4.37239e-06	6.73109e-06	8.02654e-06	56.993	2.0531e-07
398.089	74576.2	110380	133212	-55.9558	45.3277	-0.000997562	0.000974643	0.00362201	0.00248682	1	14	0.120501	9.04582e-07	1.79276e-05	0.0000000E+000	-100.094	4.20257e-06	6.22022e-06	7.50684e-06	55.9558	2.0588e-07
354.66	81265.1	116884	142358	-55.1905	46.0879	-0.00100069	0.000970923	0.00383932	0.0025882	1	14	0.120415	8.45858e-07	1.81326e-05	0.0000000E+000	-100.094	4.00995e-06	5.76753e-06	7.02454e-06	55.1905	2.05049e-07
316.316	88249	123535	151818	-54.4593	46.8449	-0.000998158	0.000971348	0.00407296	0.00269675	1	14	0.120351	7.92735e-07	1.83361e-05	0.0000000E+000	-100.078	3.8288e-06	5.35972e-06	6.58683e-06	54.4593	2.03457e-07
281.894	95774.3	130332	161738	-53.6898	47.6004	-0.00100655	0.000967822	0.00433194	0.00281294	1	14	0.120288	7.43718e-07	1.85383e-05	0.0000000E+000	-100.07	3.66121e-06	4.98227e-06	6.18284e-06	53.6898	2.02174e-07
251.044	103218	137823	172189	-53.1699	48.3569	-0.00100004	0.000976901	0.0045999	0.002947	1	14	0.120234	6.98268e-07	1.87414e-05	0.0000000E+000	-100.078	3.48132e-06	4.64848e-06	5.80758e-06	53.1699	2.0313e-07
223.925	111163	145256	182911	-52.5736	49.1197	-0.00100467	0.000983146	0.0048931	0.00308583	1	14	0.120194	6.5712e-07	1.89478e-05	0.0000000E+000	-100.086	3.32261e-06	4.34165e-06	5.46714e-06	52.5736	2.06371e-07
199.553	118990	153675	194356	-52.2495	49.8812	-0.00100267	0.000985004	0.00518991	0.00324464	1	14	0.120162	6.18256e-07	1.91547e-05	0.0000000E+000	-100.102	3.15001e-06	4.06822e-06	5.14518e-06	52.2495	2.06969e-07
177.781	127348	162593	206528	-51.9307	50.6493	-0.000998196	0.000973982	0.00550597	0.00341252	1	14	0.120138	5.817e-07	1.93634e-05	0.0000000E+000	-100.078	2.98562e-06	3.8119e-06	4.84195e-06	51.9307	2.08684e-07
158.428	136031	172041	219323	-51.667	51.4158	-0.00100219	0.000979918	0.00583921	0.00359295	1	14	0.120113	5.47651e-07	1.95704e-05	0.0000000E+000	-100.11	2.82793e-06	3.57655e-06	4.55948e-06	51.667	2.06988e-07
141.311	144957	182458	233031	-51.534	52.1689	-0.00100478	0.000978727	0.00617278	0.00378424	1	14	0.120096	5.15367e-07	1.97747e-05	0.0000000E+000	-100.11	2.66939e-06	3.35997e-06	4.29128e-06	51.534	2.04265e-07
125.846	154284	194126	247968	-51.5236	52.9244	-0.00100577	0.000972354	0.00651476	0.00399275	1	14	0.120084	4.84273e-07	1.99776e-05	0.0000000E+000	-100.086	2.50916e-06	3.15711e-06	4.03277e-06	51.5236	2.0294e-07
112.19	163950	205324	262750	-51.3929	53.6698	-0.000996126	0.000971006	0.00690917	0.00421911	1	14	0.120059	4.56931e-07	2.01776e-05	0.0000000E+000	-100.062	2.37479e-06	2.97409e-06	3.8059e-06	51.3929	1.99946e-07
100.032	174495	218873	279918	-51.4366	54.4297	-0.000993814	0.000979326	0.00726925	0.00444439	1	14	0.120054	4.28889e-07	2.0383e-05	0.0000000E+000	-100.078	2.22701e-06	2.79339e-06	3.57248e-06	51.4366	2.054e-07
89.116	185714	235307	299765	-51.718	55.1968	-0.000996219	0.000983673	0.00758978	0.00467667	1	14	0.120045	4.00465e-07	2.05916e-05	0.0000000E+000	-100.054	2.06672e-06	2.61862e-06	3.33594e-06	51.718	2.08685e-07
79.4155	197098	250504	318747	-51.8042	55.9612	-0.000998681	0.000982678	0.00800019	0.00494125	1	14	0.120033	3.76579e-07	2.0799e-05	0.0000000E+000	-100.086	1.93994e-06	2.4656e-06	3.13728e-06	51.8042	2.07352e-07
70.8387	209507	267384	339687	-51.9198	56.7124	-0.000998811	0.000981818	0.00840262	0.00520628	1	14	0.120034	3.53365e-07	2.10031e-05	0.0000000E+000	-100.046	1.81569e-06	2.31728e-06	2.94389e-06	51.9198	2.04112e-07
63.0823	223687	285553	362734	-51.9267	57.4928	-0.000991706	0.000980392	0.0088354	0.00547547	1	14	0.120017	3.30868e-07	2.12149e-05	0.0000000E+000	-100.094	1.70006e-06	2.17025e-06	2.75684e-06	51.9267	2.11744e-07
56.2418	237470	306911	388054	-52.2694	58.2364	-0.000996872	0.000978038	0.00922037	0.0057675	1	14	0.12002	3.09288e-07	2.14167e-05	0.0000000E+000	-100.054	1.57697e-06	2.03811e-06	2.57696e-06	52.2694	2.01845e-07
50.1444	251345	327660	412959	-52.5085	58.9932	-0.000996014	0.000976557	0.00968667	0.00609827	1	14	0.120016	2.90625e-07	2.16214e-05	0.0000000E+000	-100.102	1.47386e-06	1.92136e-06	2.42155e-06	52.5085	2.04746e-07
44.6712	269433	351504	442887	-52.5293	59.7572	-0.000996238	0.000970297	0.0101359	0.00638463	1	14	0.120013	2.70978e-07	2.18273e-05	0.0000000E+000	-100.094	1.37361e-06	1.79202e-06	2.25791e-06	52.5293	2.05859e-07
39.8089	288101	378191	475426	-52.7003	60.5197	-0.000996182	0.000966548	0.0105713	0.00668935	1	14	0.120012	2.52429e-07	2.20317e-05	0.0000000E+000	-100.062	1.27461e-06	1.67319e-06	2.10337e-06	52.7003	2.04386e-07
35.4653	308012	406252	509816	-52.8313	61.2701	-0.00098945	0.000959166	0.0110464	0.00701431	1	14	0.120009	2.35397e-07	2.2232e-05	0.0000000E+000	-100.054	1.18506e-06	1.56304e-06	1.96149e-06	52.8313	2.00292e-07
31.6296	331905	433379	545874	-52.5531	61.9944	-0.000998252	0.000958725	0.0116107	0.0073183	1	14	0.120003	2.19836e-07	2.24249e-05	0.0000000E+000	-100.062	1.11386e-06	1.4544e-06	1.83193e-06	52.5531	1.92888e-07
28.1701	352839	469078	586966	-53.0497	62.7998	-0.000993758	0.000962354	0.0120444	0.00769221	1	14	0.120005	2.04449e-07	2.26389e-05	0.0000000E+000	-100.11	1.02412e-06	1.3615e-06	1.70368e-06	53.0497	2.14047e-07
25.1044	381722	497622	627167	-52.5085	63.5559	-0.00098932	0.000967107	0.01274	0.00802051	1	14	0.12	1.91337e-07	2.28408e-05	0.0000000E+000	-100.078	9.70465e-07	1.26512e-06	1.59447e-06	52.5085	2.0186e-07
22.3854	409643	538395	676518	-52.734	64.2424	-0.000997282	0.000964887	0.0132055	0.00836369	1	14	0.12	1.7738e-07	2.30243e-05	0.0000000E+000	-100.086	8.95048e-07	1.17637e-06	1.47816e-06	52.734	1.83546e-07
19.9553	444115	578790	729546	-52.5004	65.0042	-0.000999072	0.000968281	0.0137797	0.00867318	1	14	0.120003	1.6449e-07	2.32274e-05	0.0000000E+000	-100.078	8.34432e-07	1.08747e-06	1.37072e-06	52.5004	2.03058e-07
17.7961	480524	613890	779592	-51.9478	65.8485	-0.000992312	0.000967439	0.0145681	0.00903337	1	14	0.119996	1.53921e-07	2.3454e-05	0.0000000E+000	-100.046	7.90643e-07	1.01008e-06	1.28272e-06	51.9478	2.26582e-07
15.8576	519038	657860	837962	-51.7273	66.5699	-0.000991035	0.000969993	0.0152563	0.00940304	1	14	0.120004	1.43209e-07	2.36483e-05	0.0000000E+000	-100.078	7.39181e-07	9.36882e-07	1.19337e-06	51.7273	1.94375e-07
14.119	562395	704999	901838	-51.4198	67.3722	-0.000988387	0.000966599	0.0159893	0.00977121	1	14	0.119996	1.33057e-07	2.3863e-05	0.0000000E+000	-100.078	6.91488e-07	8.66825e-07	1.10885e-06	51.4198	2.14645e-07
12.6008	601878	748736	960657	-51.2056	68.2629	-0.000994252	0.000949457	0.0168692	0.0102474	1	14	0.119998	1.24912e-07	2.40974e-05	0.0000000E+000	-100.038	6.52186e-07	8.11319e-07	1.04095e-06	51.2056	2.3438e-07
11.2249	657978	795405	1.03228e+06	-50.4016	68.9469	-0.0010026	0.000952142	0.0178259	0.0105836	1	14	0.12	1.16247e-07	2.42782e-05	0.0000000E+000	-100.038	6.1747e-07	7.46436e-07	9.68729e-07	50.4016	1.80887e-07
10.0032	718331	841584	1.10646e+06	-49.5177	69.7077	-0.000986914	0.000957881	0.0189053	0.0109371	1	14	0.119997	1.08451e-07	2.44789e-05	0.0000000E+000	-100.054	5.86746e-07	6.87421e-07	9.0378e-07	49.5177	2.00677e-07
8.91838	774887	887568	1.17823e+06	-48.8775	70.552	-0.000992135	0.000961504	0.0201063	0.0114097	1	14	0.119998	1.01846e-07	2.47031e-05	0.0000000E+000	-100.086	5.58185e-07	6.39353e-07	8.4873e-07	48.8775	2.2417e-07
7.93953	842702	922598	1.24953e+06	-47.5914	71.4907	-0.000990643	0.0009517	0.0217277	0.0118452	1	14	0.119993	9.60302e-08	2.49505e-05	0.0000000E+000	-100.126	5.39732e-07	5.90903e-07	8.00299e-07	47.5914	2.47415e-07
7.07654	937386	983516	1.35867e+06	-46.3757	72.049	-0.0010064	0.000950041	0.0228675	0.0119826	1	14	0.119994	8.83171e-08	2.50982e-05	0.0000000E+000	-100.03	5.07794e-07	5.32783e-07	7.36012e-07	46.3757	1.47667e-07
6.31058	1.02193e+06	1.01197e+06	1.43821e+06	-44.7193	72.6692	-0.000994131	0.000957176	0.024922	0.0123389	1	14	0.120001	8.34381e-08	2.52614e-05	0.0000000E+000	-100.094	4.94062e-07	4.89245e-07	6.95311e-07	44.7193	1.63211e-07
5.6205	1.11867e+06	1.0966e+06	1.56651e+06	-44.4291	73.3557	-0.000990961	0.000957115	0.0258225	0.012654	1	14	0.119995	7.66001e-08	2.5443e-05	0.0000000E+000	-100.062	4.55866e-07	4.4687e-07	6.38363e-07	44.4291	1.81611e-07
5.01444	1.19787e+06	1.1087e+06	1.63221e+06	-42.7859	74.1132	-0.00100069	0.000956756	0.0286276	0.0132086	1	14	0.11999	7.35135e-08	2.5644e-05	0.0000000E+000	-100.07	4.49634e-07	4.1616e-07	6.12666e-07	42.7859	2.01015e-07
4.46939	1.28714e+06	1.1965e+06	1.75737e+06	-42.9098	74.9545	-0.000983464	0.000959678	0.0297618	0.0137961	1	14	0.119997	6.8282e-08	2.58673e-05	0.0000000E+000	-100.086	4.16774e-07	3.87423e-07	5.69032e-07	42.9098	2.233e-07
3.97785	1.39853e+06	1.2112e+06	1.8501e+06	-40.8943	75.8912	-0.000985487	0.000956106	0.0330337	0.0141578	1	14	0.119994	6.48583e-08	2.61142e-05	0.0000000E+000	-100.102	4.08583e-07	3.53854e-07	5.40511e-07	40.8943	2.46926e-07
3.55114	1.54407e+06	1.2166e+06	1.96578e+06	-38.2352	76.9324	-0.000993105	0.000950388	0.0368388	0.0141102	1	14	0.119997	6.10429e-08	2.63891e-05	0.0000000E+000	-100.046	3.99576e-07	3.14833e-07	5.08705e-07	38.2352	2.74812e-07
3.1604	1.63559e+06	1.27513e+06	2.07391e+06	-37.9407	78.0952	-0.000977478	0.000953722	0.0394932	0.0149298	1	14	0.119996	5.78595e-08	2.66976e-05	0.0000000E+000	-100.094	3.80271e-07	2.96466e-07	4.82181e-07	37.9407	3.08524e-07
2.81836	1.7482e+06	1.32809e+06	2.19546e+06	-37.2234	79.3907	-0.000977179	0.000961344	0.0425204	0.0155597	1	14	0.119995	5.46559e-08	2.70412e-05	0.0000000E+000	-100.118	3.62695e-07	2.75535e-07	4.55486e-07	37.2234	3.43666e-07