File: data/DE_40_3_60.mpt
EC-Lab ASCII FILE
Nb header lines : 75

Potentio Electrochemical Impedance Spectroscopy

Run on channel : 3 (SN 20921)
User :
CE vs. WE compliance from -10 V to 10 V
Electrode connection : standard
Ewe ctrl range : min = -10.00 V, max = 10.00 V
Safety Limits :
	Do not start on E overload
Acquisition started on : 01/24/2020 09:45:13
Technique started on : 01/24/2020 09:45:14
Saved on :
	File : DE_40_3_60.mpr
	Directory : P:\Chemistry\Data\VMP3\Kyler\DOE\DE_40\2ND 60C\
	Host : 10.0.4.99
Device : VMP3 (SN 0183)
Address : USB
EC-Lab for windows v11.33 (software)
Internet server v11.32 (firmware)
Command interpretor v11.33 (firmware)
Electrode material :
Initial state :
Electrolyte :
Comments :
Electrode surface area : 0.001 cm²
Characteristic mass : 0.001 g
Equivalent Weight : 0.000 g/eq.
Density : 0.000 g/cm3
Record Analogic IN 1
Cycle Definition : Charge/Discharge alternance
External device configuration :
   device type : Thermostat
   device name : Other
   Analog OUT :
      mode : E/V
      unit : T/°C
      max : 400.000 at 5.000 V
      min : -100.000 at 0.000 V
      current : 0.000
   Analog IN 1 :
      unit : T/°C
      max : 400.000 at 5.000 V
      min : -100.000 at 0.000 V
Mode                Single sine
E (V)               0.0000
vs.                 Eoc
tE (h:m:s)          0:00:0.0000
record              0
dI                  1.000
unit dI             mA
dt (s)              0.000
fi                  1.000
unit fi             MHz
ff                  1.000
unit ff             Hz
Nd                  20
Points              per decade
spacing             Logarithmic
Va (mV)             128.0
pw                  0.50
Na                  3
corr                0
E range min (V)     -10.000
E range max (V)     10.000
I Range             Auto
Bandwidth           5
nc cycles           0
goto Ns'            0
nr cycles           0
inc. cycle          1

freq/Hz	Re(Z)/Ohm	-Im(Z)/Ohm	|Z|/Ohm	Phase(Z)/deg	time/s	<Ewe>/V	<I>/mA	Cs/µF	Cp/µF	cycle number	I Range	|Ewe|/V	|I|/A	(Q-Qo)/mA.h	Analog OUT/V	Analog IN 1/V	Re(Y)/Ohm-1	Im(Y)/Ohm-1	|Y|/Ohm-1	Phase(Y)/deg	dq/mA.h
1.00002e+06	4.4603	-1.6544	4.75724	20.3507	1.8466	-0.00610015	0.25528	-0.096199	-0.0116344	1	9	3.05911e-05	6.43042e-06	2.69996e-05	0.0000000E+000	-100.08	0.197085	-0.0731024	0.210206	-20.3507	2.69996e-05
891247	81.2004	26.5866	85.4421	-18.1295	3.02149	-0.00573522	0.00248318	0.00671674	0.000650342	1	11	0.000495178	5.79548e-06	5.22647e-05	0.0000000E+000	-100.064	0.0111228	0.00364183	0.0117038	18.1295	2.52651e-05
794333	84.7757	25.5968	88.5557	-16.8009	3.61747	-0.00538281	0.00250257	0.00782766	0.000653989	1	11	0.0014435	1.63004e-05	5.27412e-05	0.0000000E+000	-100.072	0.0108103	0.00326402	0.0112923	16.8009	4.76525e-07
707950	87.7789	24.3573	91.0956	-15.5085	4.21248	-0.0050971	0.00241944	0.00922974	0.000659859	1	11	0.00297743	3.26846e-05	5.32649e-05	0.0000000E+000	-100.064	0.0105778	0.00293517	0.0109775	15.5085	5.23721e-07
630957	90.4833	22.9392	93.3458	-14.2258	4.80849	-0.0048366	0.00247368	0.0109962	0.000664064	1	11	0.00519137	5.56144e-05	5.38484e-05	0.0000000E+000	-100.072	0.0103843	0.00263263	0.0107129	14.2258	5.83434e-07
562342	93.1414	21.5669	95.6057	-13.0371	5.40549	-0.00462431	0.00250164	0.0131229	0.000667791	1	11	0.00814777	8.52226e-05	5.43446e-05	0.0000000E+000	-100.088	0.01019	0.00235951	0.0104596	13.0371	4.96214e-07
501206	95.3619	20.2185	97.4817	-11.9705	6.00249	-0.00446244	0.00247387	0.0157056	0.000675627	1	11	0.0118538	0.0001216	5.4876e-05	0.0000000E+000	-100.072	0.0100353	0.00212766	0.0102583	11.9705	5.31376e-07
446686	97.2722	18.9025	99.0918	-10.997	6.59749	-0.00434852	0.00246306	0.0188494	0.000685902	1	11	0.0163574	0.000165073	5.50431e-05	0.0000000E+000	-100.08	0.00990634	0.00192506	0.0100917	10.997	1.67156e-07
398103	98.9229	17.6116	100.478	-10.0948	7.19349	-0.00431652	0.00249941	0.0227	0.000697393	1	11	0.0216353	0.000215323	5.59451e-05	0.0000000E+000	-100.088	0.00979832	0.00174443	0.00995239	10.0948	9.01947e-07
354810	100.257	16.2648	101.568	-9.21487	7.78949	-0.00429999	0.00254321	0.0275788	0.00070723	1	11	0.0277467	0.000273184	5.57919e-05	0.0000000E+000	-100.072	0.00971858	0.00157665	0.00984564	9.21487	-1.53156e-07
316230	101.342	14.9926	102.445	-8.41535	8.38548	-0.00431782	0.00233371	0.0335691	0.000718975	1	11	0.0346802	0.000338525	5.69189e-05	0.0000000E+000	-100.064	0.00965624	0.00142855	0.00976134	8.41535	1.12703e-06
281835	102.236	13.7915	103.162	-7.68278	8.98148	-0.0043108	0.00250426	0.0409463	0.000731815	1	11	0.0425363	0.000412327	5.79489e-05	0.0000000E+000	-100.056	0.00960651	0.00129591	0.00969353	7.68278	1.02996e-06
251188	102.925	12.648	103.699	-7.00572	9.57648	-0.00431184	0.0024735	0.0500957	0.000745239	1	11	0.0513076	0.000494775	5.80899e-05	0.0000000E+000	-100.096	0.00957132	0.00117618	0.00964331	7.00572	1.41049e-07
223872	103.492	11.6237	104.143	-6.4083	10.1715	-0.00431503	0.00221685	0.0611613	0.000761914	1	11	0.0610738	0.000586442	5.78803e-05	0.0000000E+000	-100.096	0.0095422	0.00107173	0.00960219	6.4083	-2.09603e-07
199544	103.93	10.7093	104.48	-5.88321	10.7675	-0.00426847	0.00261461	0.0744767	0.000782486	1	11	0.0717243	0.000686487	5.80709e-05	0.0000000E+000	-100.08	0.00952078	0.000981056	0.00957119	5.88321	1.90613e-07
177832	104.268	9.87407	104.734	-5.40973	11.3645	-0.00428849	0.00229701	0.0906389	0.000805619	1	11	0.0832266	0.000794646	5.94422e-05	0.0000000E+000	-100.064	0.00950545	0.000900158	0.00954798	5.40973	1.37121e-06
158486	104.54	9.12922	104.938	-4.99085	11.9605	-0.00424496	0.00268768	0.110001	0.000832532	1	11	0.0955783	0.000910811	5.87182e-05	0.0000000E+000	-100.08	0.00949335	0.000829033	0.00952948	4.99085	-7.2397e-07
141256	104.748	8.49373	105.092	-4.63581	12.5565	-0.00425848	0.00257137	0.132652	0.000866508	1	11	0.108727	0.00103459	5.90996e-05	0.0000000E+000	-100.088	0.00948434	0.000769058	0.00951547	4.63581	3.81419e-07
125909	104.927	7.94911	105.228	-4.33237	13.0165	-0.0042415	0.00253242	0.159017	0.000907447	1	11	0.122843	0.0011674	5.87108e-05	0.0000000E+000	-100.08	0.00947605	0.000717892	0.00950321	4.33237	-3.88757e-07
112205	105.071	7.49589	105.338	-4.08065	13.4755	-0.00418474	0.00307034	0.189228	0.000958215	1	11	0.137999	0.00131006	5.97567e-05	0.0000000E+000	-100.096	0.0094692	0.000675546	0.00949327	4.08065	1.0459e-06
100004	105.176	7.1261	105.417	-3.87609	14.0705	-0.0041558	0.00265805	0.223333	0.00102055	1	11	0.130292	0.00123596	5.89884e-05	0.0000000E+000	-100.064	0.00946443	0.000641253	0.00948612	3.87609	-7.68306e-07
89129.3	105.251	6.83637	105.473	-3.7163	14.6655	-0.00413563	0.00246718	0.261201	0.00109734	1	11	0.129787	0.00123052	6.07292e-05	0.0000000E+000	-100.096	0.00946115	0.000614528	0.00948109	3.7163	1.74077e-06
79433.3	105.304	6.62206	105.512	-3.59832	15.2615	-0.00409528	0.00253745	0.302569	0.00119181	1	11	0.1296	0.0012283	5.84673e-05	0.0000000E+000	-100.048	0.00945892	0.000594826	0.0094776	3.59832	-2.26187e-06
70795	105.344	6.49275	105.544	-3.5269	15.8585	-0.00405646	0.0026476	0.346249	0.00131033	1	11	0.129514	0.00122711	5.80371e-05	0.0000000E+000	-100.064	0.0094568	0.000582859	0.00947474	3.5269	-4.30233e-07
63093.8	105.376	6.43506	105.572	-3.49458	16.4545	-0.00405773	0.00254491	0.391995	0.00145642	1	11	0.129443	0.00122611	5.87313e-05	0.0000000E+000	-100.096	0.00945459	0.00057737	0.0094722	3.49458	6.94201e-07
56237	105.393	6.45607	105.591	-3.50538	17.0505	-0.00404846	0.00242096	0.438359	0.00163875	1	11	0.129299	0.00122453	5.8775e-05	0.0000000E+000	-100.112	0.00945278	0.000579048	0.0094705	3.50538	4.36471e-08
50122.5	105.403	6.55329	105.607	-3.55769	17.6465	-0.00402843	0.00249011	0.484539	0.00186579	1	11	0.129348	0.00122481	6.00952e-05	0.0000000E+000	-100.088	0.00945083	0.00058759	0.00946908	3.55769	1.32029e-06
44666.7	105.424	6.7322	105.639	-3.65386	18.1055	-0.00402593	0.00250559	0.529272	0.00214955	1	11	0.140218	0.00132734	6.14189e-05	0.0000000E+000	-100.04	0.00944699	0.00060327	0.00946623	3.65386	1.32363e-06
39814.1	105.43	6.98249	105.661	-3.7891	18.7015	-0.00400677	0.002445	0.572497	0.00250016	1	11	0.130274	0.00123295	6.26173e-05	0.0000000E+000	-100.144	0.00944358	0.000625438	0.00946426	3.7891	1.19846e-06
35481	105.45	7.33128	105.704	-3.97703	19.1615	-0.00400049	0.0025369	0.61185	0.0029432	1	11	0.139569	0.00132037	6.28509e-05	0.0000000E+000	-100.104	0.00943759	0.000656139	0.00946037	3.97703	2.33615e-07
31621.1	105.454	7.76306	105.739	-4.21028	19.7575	-0.00398658	0.00240847	0.64835	0.00349465	1	11	0.130029	0.00122972	6.46202e-05	0.0000000E+000	-100.112	0.00943171	0.000694322	0.00945724	4.21028	1.76928e-06
28188.1	105.482	8.28494	105.807	-4.491	20.2165	-0.00398177	0.00246272	0.681499	0.00417847	1	11	0.137576	0.00130025	6.43294e-05	0.0000000E+000	-100.096	0.00942218	0.000740053	0.0094512	4.491	-2.90818e-07
25116.9	105.492	8.91104	105.867	-4.82839	20.8125	-0.00396923	0.00244314	0.711092	0.00503799	1	11	0.12969	0.00122502	6.49192e-05	0.0000000E+000	-100.112	0.00941225	0.000795066	0.00944577	4.82839	5.89778e-07
22389	105.528	9.64258	105.968	-5.22086	21.2715	-0.00397566	0.00243923	0.73721	0.00610419	1	11	0.135489	0.00127858	6.57548e-05	0.0000000E+000	-100.112	0.00939765	0.000858703	0.0094368	5.22086	8.35658e-07
19948.8	105.569	10.4901	106.089	-5.67471	21.7315	-0.00396474	0.0025177	0.760542	0.0074361	1	11	0.14074	0.00132662	6.70596e-05	0.0000000E+000	-100.096	0.00937987	0.000932055	0.00942606	5.67471	1.30479e-06
17786.9	105.609	11.4645	106.229	-6.19555	22.3275	-0.00395195	0.00256876	0.780487	0.00909047	1	11	0.129785	0.00122174	6.5208e-05	0.0000000E+000	-100.08	0.00935862	0.00101594	0.0094136	6.19555	-1.85168e-06
15847.7	105.672	12.5764	106.418	-6.78705	22.7865	-0.00395782	0.00249663	0.79854	0.0111527	1	11	0.133383	0.00125339	6.6742e-05	0.0000000E+000	-100.064	0.00933105	0.00111052	0.0093969	6.78705	1.53405e-06
14121.9	105.748	13.8213	106.648	-7.44634	23.2465	-0.00396086	0.0024834	0.815416	0.0136953	1	11	0.136449	0.00127943	6.61955e-05	0.0000000E+000	-100.072	0.00929759	0.00121519	0.00937666	7.44634	-5.46494e-07
12590.9	105.856	15.2631	106.951	-8.20481	23.7065	-0.00396019	0.00248415	0.828167	0.016867	1	11	0.139041	0.00130004	6.68578e-05	0.0000000E+000	-100.104	0.00925439	0.00133437	0.0093501	8.20481	6.6225e-07
11217.7	105.959	16.8769	107.295	-9.04992	24.3025	-0.00395162	0.00240344	0.840665	0.0207995	1	11	0.12927	0.00120481	7.02784e-05	0.0000000E+000	-100.088	0.00920411	0.00146601	0.00932013	9.04992	3.42064e-06
10002.2	106.109	18.6774	107.74	-9.98302	24.7625	-0.00395216	0.00241947	0.851937	0.0256028	1	11	0.130879	0.00121477	7.16581e-05	0.0000000E+000	-100.072	0.00914109	0.00160903	0.00928162	9.98302	1.37969e-06
8914.93	106.286	20.7075	108.285	-11.0247	25.2449	-0.00393384	0.00255889	0.862132	0.031528	1	11	0.132201	0.00122087	7.1682e-05	0.0000000E+000	-100.056	0.00906449	0.00176601	0.00923492	11.0247	2.38774e-08
7944	106.493	22.9771	108.944	-12.1756	25.771	-0.00392094	0.00258815	0.871939	0.0387857	1	11	0.133251	0.00122311	7.2283e-05	0.0000000E+000	-100.056	0.00897257	0.00193593	0.00917905	12.1756	6.01e-07
7082.23	106.731	25.505	109.736	-13.4397	26.3479	-0.00392003	0.00263847	0.8811	0.0475967	1	11	0.134077	0.00122181	7.36598e-05	0.0000000E+000	-100.096	0.00886323	0.00211801	0.00911278	13.4397	1.37681e-06
6307.73	107.015	28.3523	110.707	-14.8388	26.9826	-0.00390226	0.0025244	0.889936	0.0583688	1	11	0.134726	0.00121696	7.29583e-05	0.0000000E+000	-100.048	0.00873157	0.00231331	0.00903281	14.8388	-7.01458e-07
5621.06	107.344	31.5053	111.872	-16.3568	27.6833	-0.0038974	0.00249085	0.898709	0.0712756	1	11	0.135212	0.00120863	7.35853e-05	0.0000000E+000	-100.088	0.00857699	0.00251732	0.00893877	16.3568	6.26981e-07
5011.6	107.717	35.0095	113.263	-18.0049	28.4437	-0.00390825	0.00238778	0.907106	0.0866665	1	11	0.135558	0.00119684	7.31817e-05	0.0000000E+000	-100.008	0.00839664	0.00272903	0.00882899	18.0049	-4.03599e-07
4466.43	108.182	38.9028	114.964	-19.7789	29.2037	-0.00390868	0.00251415	0.915966	0.104886	1	11	0.135816	0.00118138	7.3389e-05	0.0000000E+000	-100.088	0.00818522	0.00294345	0.00869837	19.7789	2.07329e-07
3981.27	108.713	43.2268	116.992	-21.6839	29.9637	-0.00389979	0.00256932	0.924794	0.126253	1	11	0.135972	0.00116224	7.30405e-05	0.0000000E+000	-100.072	0.00794276	0.00315823	0.00854762	21.6839	-3.48524e-07
3546.6	109.337	48.0489	119.429	-23.7234	30.7229	-0.00389941	0.0024409	0.933952	0.151172	1	11	0.136049	0.00113916	7.43161e-05	0.0000000E+000	-100.096	0.00766561	0.0033687	0.00837316	23.7234	1.27556e-06
3161.01	110.063	53.3743	122.322	-25.8708	31.4827	-0.00389101	0.00263064	0.943326	0.179605	1	11	0.136067	0.00111237	7.54737e-05	0.0000000E+000	-100.096	0.00735584	0.00356717	0.00817515	25.8708	1.15769e-06
2817.3	110.905	59.2808	125.754	-28.1253	32.243	-0.00391265	0.00243941	0.952957	0.211765	1	11	0.136035	0.00108175	7.57097e-05	0.0000000E+000	-100.064	0.00701302	0.00374858	0.007952	28.1253	2.35908e-07
2510.8	111.875	65.805	129.794	-30.464	33.0027	-0.00388568	0.00265897	0.963271	0.247605	1	11	0.135958	0.00104749	7.5323e-05	0.0000000E+000	-100.08	0.00664091	0.00390618	0.00770453	30.464	-3.86648e-07
2237.85	112.967	73.0342	134.52	-32.883	33.7629	-0.00390901	0.00247128	0.973784	0.287041	1	11	0.135845	0.00100985	7.538e-05	0.0000000E+000	-100.064	0.00624281	0.00403603	0.00743386	32.883	5.69505e-08
1995.64	114.206	80.9749	140	-35.3376	34.5227	-0.00392247	0.00233746	0.98489	0.329485	1	11	0.135715	0.000969398	7.60497e-05	0.0000000E+000	-100.032	0.00582686	0.0041314	0.00714288	35.3376	6.69745e-07
1778.29	115.623	89.8176	146.41	-37.8404	35.2829	-0.00391084	0.00247445	0.99645	0.375003	1	11	0.135565	0.000925925	7.68528e-05	0.0000000E+000	-100.048	0.0053939	0.00419004	0.00683012	37.8404	8.03097e-07
1585.51	117.204	99.5446	153.772	-40.3422	36.0427	-0.00391527	0.00236653	1.0084	0.422585	1	11	0.135413	0.000880607	7.66547e-05	0.0000000E+000	-100.064	0.00495663	0.00420981	0.00650313	40.3422	-1.98063e-07
1411.84	118.977	110.413	162.317	-42.8619	36.8042	-0.00390838	0.00243493	1.02097	0.472422	1	11	0.135255	0.00083328	7.749e-05	0.0000000E+000	-100.072	0.00451583	0.00419078	0.00616079	42.8619	8.35287e-07
1258.79	120.928	122.296	171.988	-45.3221	37.5639	-0.0039177	0.00235684	1.03385	0.522734	1	11	0.1351	0.000785518	7.73565e-05	0.0000000E+000	-100.088	0.0040882	0.00413442	0.00581436	45.3221	-1.33518e-07
1121.79	123.094	135.489	183.056	-47.7443	38.3224	-0.00390704	0.0024107	1.04713	0.573646	1	11	0.134953	0.000737226	7.83911e-05	0.0000000E+000	-100.064	0.00367342	0.00404331	0.00546282	47.7443	1.03457e-06
1000.32	125.472	150.003	195.561	-50.0889	39.0817	-0.00390167	0.00248824	1.06067	0.624048	1	11	0.134811	0.000689355	7.90862e-05	0.0000000E+000	-100.08	0.00328081	0.00392226	0.0051135	50.0889	6.95089e-07
891.427	128.085	166.13	209.774	-52.3682	39.8404	-0.00390556	0.00242225	1.0747	0.674034	1	11	0.134685	0.000642051	7.96547e-05	0.0000000E+000	-100.056	0.00291069	0.00377526	0.00476704	52.3682	5.68495e-07
794.238	130.981	184.038	225.89	-54.5602	40.5999	-0.00391212	0.0023818	1.08883	0.722744	1	11	0.134574	0.000595752	8.03044e-05	0.0000000E+000	-100.096	0.00256695	0.00360674	0.00442694	54.5602	6.49703e-07
707.509	134.137	203.891	244.058	-56.6596	41.3614	-0.00390489	0.00246195	1.10329	0.770015	1	11	0.13447	0.000550974	8.05777e-05	0.0000000E+000	-100.056	0.00225197	0.00342303	0.00409738	56.6596	2.73359e-07
631.01	137.522	225.678	264.278	-58.6429	42.1194	-0.00391035	0.00237938	1.11762	0.814988	1	11	0.134377	0.00050847	8.07534e-05	0.0000000E+000	-100.04	0.00196903	0.00323123	0.0037839	58.6429	1.7564e-07
562.339	141.24	249.971	287.114	-60.5325	42.8759	-0.00390508	0.00237472	1.13222	0.858231	1	11	0.134294	0.000467738	8.14271e-05	0.0000000E+000	-100.032	0.00171336	0.00303237	0.00348294	60.5325	6.73732e-07
501.444	145.232	276.777	312.567	-62.3128	43.8832	-0.00392642	0.000267203	1.14675	0.899171	1	12	0.137371	0.000439494	8.17593e-05	0.0000000E+000	-100.064	0.00148654	0.00283299	0.00319932	62.3128	3.32231e-07
446.859	149.639	306.675	341.235	-63.9904	44.6399	-0.00392295	0.000261647	1.16137	0.938038	1	12	0.13677	0.000400808	8.17443e-05	0.0000000E+000	-100.096	0.0012851	0.00263373	0.00293053	63.9904	-1.5018e-08
398.089	154.419	339.956	373.384	-65.5709	45.4027	-0.00392469	0.000235209	1.17602	0.974881	1	12	0.136258	0.000364928	8.16017e-05	0.0000000E+000	-100.04	0.00110762	0.00243844	0.00267821	65.5709	-1.42576e-07
354.66	159.549	376.875	409.257	-67.0548	46.1629	-0.0039237	0.000275908	1.19072	1.00975	1	12	0.135831	0.000331897	8.17733e-05	0.0000000E+000	-100.08	0.000952583	0.00225012	0.00244345	67.0548	1.71601e-07
316.316	165.161	417.558	449.036	-68.4192	46.9199	-0.00391485	0.000243859	1.20499	1.04197	1	12	0.135478	0.000301708	8.16396e-05	0.0000000E+000	-100.088	0.000819116	0.00207088	0.00222699	68.4192	-1.33723e-07
281.894	171.239	463.028	493.678	-69.7044	47.6754	-0.00392888	0.000237761	1.21934	1.07264	1	12	0.13519	0.000273843	8.19224e-05	0.0000000E+000	-100.104	0.000702612	0.00189985	0.00202561	69.7044	2.82835e-07
251.044	177.88	513.923	543.836	-70.9081	48.4319	-0.0039278	0.000242419	1.23359	1.10162	1	12	0.134949	0.000248142	8.21296e-05	0.0000000E+000	-100.088	0.000601438	0.00173765	0.00183879	70.9081	2.07187e-07
223.925	184.997	569.766	599.047	-72.012	49.1947	-0.00392407	0.000249392	1.24744	1.12848	1	12	0.134751	0.000224943	8.22867e-05	0.0000000E+000	-100.064	0.000515516	0.00158772	0.00166932	72.012	1.57099e-07
199.553	192.694	632.395	661.1	-73.0538	49.9562	-0.00393192	0.000239473	1.26117	1.15403	1	12	0.134588	0.000203581	8.21167e-05	0.0000000E+000	-100.024	0.000440892	0.00144695	0.00151263	73.0538	-1.69995e-07
177.781	201.188	702.281	730.531	-74.0142	50.7243	-0.00393136	0.000240349	1.27474	1.17806	1	12	0.134459	0.000184056	8.19834e-05	0.0000000E+000	-100.08	0.000376986	0.00131593	0.00136887	74.0142	-1.33311e-07
158.428	210.355	779.799	807.673	-74.9035	51.4907	-0.00392566	0.000247341	1.28826	1.20088	1	12	0.134349	0.000166341	8.2163e-05	0.0000000E+000	-100.08	0.000322464	0.0011954	0.00123812	74.9035	1.7956e-07
141.311	220.355	865.513	893.123	-75.7162	52.2439	-0.00392664	0.00025271	1.30128	1.22206	1	12	0.134264	0.000150331	8.20978e-05	0.0000000E+000	-100.056	0.000276249	0.00108505	0.00111967	75.7162	-6.52055e-08
125.846	231.226	962.303	989.693	-76.4889	52.9994	-0.00392881	0.000235501	1.31423	1.24249	1	12	0.134188	0.000135585	8.22386e-05	0.0000000E+000	-100.064	0.000236067	0.00098245	0.00101041	76.4889	1.40785e-07
112.19	243.18	1069.15	1096.46	-77.186	53.7449	-0.00392953	0.000221964	1.32686	1.2616	1	12	0.13413	0.00012233	8.23651e-05	0.0000000E+000	-100.064	0.000202275	0.000889311	0.000912025	77.186	1.26536e-07
100.032	256.201	1188.1	1215.41	-77.8311	54.5047	-0.00392905	0.000248718	1.33915	1.27965	1	12	0.134084	0.00011032	8.23622e-05	0.0000000E+000	-100.04	0.000173436	0.000804282	0.00082277	77.8311	-2.94574e-09
89.116	270.67	1321.63	1349.06	-78.4259	55.2717	-0.0039256	0.000239247	1.35131	1.29691	1	12	0.13405	9.93652e-05	8.23228e-05	0.0000000E+000	-100.144	0.000148722	0.000726182	0.000741254	78.4259	-3.93906e-08
79.4155	286.565	1470.02	1497.7	-78.9691	56.0362	-0.00393214	0.00021803	1.3633	1.31339	1	12	0.134018	8.94825e-05	8.24747e-05	0.0000000E+000	-100.088	0.000127755	0.000655357	0.000667693	78.9691	1.5193e-07
70.8387	303.848	1633.72	1661.74	-79.4642	56.7874	-0.00392657	0.000231659	1.37522	1.32924	1	12	0.133995	8.06356e-05	8.24919e-05	0.0000000E+000	-100.08	0.000110035	0.000591634	0.000601779	79.4642	1.72293e-08
63.0823	323.595	1819.17	1847.73	-79.9137	57.5679	-0.00392661	0.000249034	1.38688	1.34434	1	12	0.133973	7.25068e-05	8.25148e-05	0.0000000E+000	-100.08	9.47821e-05	0.000532841	0.000541205	79.9137	2.285e-08
56.2418	344.686	2024.04	2053.18	-80.3355	58.3123	-0.00392457	0.000245007	1.39811	1.35871	1	12	0.133954	6.52422e-05	8.25654e-05	0.0000000E+000	-100.056	8.17656e-05	0.000480138	0.00048705	80.3355	5.06435e-08
50.1444	368.432	2252.12	2282.05	-80.7091	59.0692	-0.00392506	0.00023397	1.40931	1.37258	1	12	0.133942	5.86936e-05	8.26109e-05	0.0000000E+000	-100.096	7.07466e-05	0.000432453	0.000438202	80.7091	4.54991e-08
44.6712	395.731	2508.46	2539.48	-81.035	59.8332	-0.0039262	0.00024579	1.42032	1.38583	1	12	0.133933	5.27404e-05	8.26423e-05	0.0000000E+000	-100.064	6.13634e-05	0.00038897	0.000393781	81.035	3.14046e-08
39.8089	425.595	2793.99	2826.22	-81.339	60.8487	-0.00392923	3.17151e-05	1.43092	1.39847	1	13	0.134226	4.7493e-05	8.27196e-05	0.0000000E+000	-100.032	5.32826e-05	0.000349795	0.00035383	81.339	7.73138e-08
35.4653	459.357	3112.02	3145.74	-81.6033	61.5991	-0.0039351	3.20878e-05	1.44203	1.41128	1	13	0.134162	4.26488e-05	8.26461e-05	0.0000000E+000	-100.096	4.64201e-05	0.000314483	0.000317891	81.6033	-7.34845e-08
31.6296	496.724	3463.31	3498.75	-81.838	62.3234	-0.00393313	3.47919e-05	1.4529	1.42361	1	13	0.134104	3.83292e-05	8.26135e-05	0.0000000E+000	-100.08	4.05778e-05	0.000282921	0.000285816	81.838	-3.2653e-08
28.1701	540.505	3859.09	3896.76	-82.027	63.1288	-0.00393164	3.04589e-05	1.46402	1.43585	1	13	0.134063	3.44036e-05	8.26611e-05	0.0000000E+000	-100.104	3.55952e-05	0.000254143	0.000256623	82.027	4.7593e-08
25.1044	588.24	4297.75	4337.82	-82.2063	63.8849	-0.00393281	3.0837e-05	1.47512	1.448	1	13	0.134028	3.08976e-05	8.26877e-05	0.0000000E+000	-100.072	3.12616e-05	0.000228401	0.000230531	82.2063	2.66289e-08
22.3854	642.147	4783.77	4826.67	-82.3546	64.5714	-0.00393682	2.71618e-05	1.48623	1.45992	1	13	0.134002	2.77629e-05	8.26701e-05	0.0000000E+000	-100.072	2.75638e-05	0.00020534	0.000207182	82.3546	-1.76448e-08
19.9553	703.739	5325.9	5372.19	-82.4728	65.3332	-0.00393291	3.08796e-05	1.49751	1.47181	1	13	0.133983	2.49401e-05	8.27202e-05	0.0000000E+000	-100.064	2.43842e-05	0.00018454	0.000186144	82.4728	5.01429e-08
17.7961	772.763	5927.88	5978.04	-82.5728	66.1775	-0.00393132	2.72054e-05	1.50867	1.48346	1	13	0.13396	2.24087e-05	8.27215e-05	0.0000000E+000	-100.072	2.16237e-05	0.000165876	0.000167279	82.5728	1.2664e-09
15.8576	850.551	6600.23	6654.81	-82.6569	66.899	-0.00394118	2.9439e-05	1.52063	1.49579	1	13	0.133946	2.01277e-05	8.26657e-05	0.0000000E+000	-100.08	1.92057e-05	0.000149035	0.000150267	82.6569	-5.57857e-08
14.119	940.992	7358.31	7418.23	-82.7125	67.7013	-0.00392774	3.04472e-05	1.53193	1.50728	1	13	0.133937	1.80551e-05	8.26667e-05	0.0000000E+000	-100.08	1.70996e-05	0.000133714	0.000134803	82.7125	1.05014e-09
12.6008	1041.81	8182.05	8248.11	-82.7437	68.5918	-0.00392825	2.17494e-05	1.54369	1.51906	1	13	0.133929	1.62375e-05	8.27323e-05	0.0000000E+000	-100.04	1.53137e-05	0.000120269	0.00012124	82.7437	6.55719e-08
11.2249	1158.59	9111.73	9185.09	-82.7535	69.2759	-0.00393367	2.67235e-05	1.5561	1.53134	1	13	0.133922	1.45804e-05	8.26423e-05	0.0000000E+000	-100.072	1.37329e-05	0.000108002	0.000108872	82.7535	-9.00213e-08
10.0032	1292.33	10142.1	10224.1	-82.7384	70.0367	-0.00393113	2.71353e-05	1.56874	1.54368	1	13	0.133915	1.30979e-05	8.27257e-05	0.0000000E+000	-100.048	1.23629e-05	9.70232e-05	9.78077e-05	82.7384	8.3365e-08
8.91838	1432.8	11284.8	11375.4	-82.764	70.881	-0.00392128	2.93837e-05	1.58139	1.5563	1	13	0.133912	1.1772e-05	8.2691e-05	0.0000000E+000	-100.056	1.10727e-05	8.72088e-05	8.7909e-05	82.764	-3.46781e-08
7.93953	1603.9	12575.8	12677.7	-82.7318	71.8197	-0.00392098	2.66534e-05	1.594	1.56849	1	13	0.133904	1.05622e-05	8.27457e-05	0.0000000E+000	-100.088	9.97929e-06	7.82451e-05	7.88789e-05	82.7318	5.46804e-08
7.07654	1797.2	13994.1	14109.1	-82.6818	72.378	-0.00394053	2.64177e-05	1.60714	1.58106	1	13	0.133899	9.49031e-06	8.27612e-05	0.0000000E+000	-100.08	9.02816e-06	7.02991e-05	7.08764e-05	82.6818	1.55577e-08
6.31058	1993.34	15635.9	15762.4	-82.7348	72.9982	-0.00393095	1.19872e-05	1.61298	1.58718	1	13	0.133911	8.49557e-06	8.2792e-05	0.0000000E+000	-100.064	8.02296e-06	6.29327e-05	6.3442e-05	82.7348	3.07699e-08
5.6205	2286.46	17386.1	17535.8	-82.508	73.6847	-0.00393203	1.51368e-05	1.62871	1.60102	1	13	0.133892	7.63538e-06	8.27875e-05	0.0000000E+000	-100.072	7.43555e-06	5.65394e-05	5.70263e-05	82.508	-4.52796e-09
5.01444	2598.26	19280.4	19454.7	-82.325	74.4422	-0.00392073	1.38956e-05	1.64619	1.61683	1	13	0.133893	6.8823e-06	8.27204e-05	0.0000000E+000	-100.112	6.8649e-06	5.0941e-05	5.14015e-05	82.325	-6.70255e-08
4.46939	2851.45	21480.2	21668.7	-82.4383	75.2835	-0.00393058	3.98314e-05	1.6578	1.62909	1	13	0.133901	6.17945e-06	8.26809e-05	0.0000000E+000	-100.072	6.07297e-06	4.57482e-05	4.61496e-05	82.4383	-3.95621e-08
3.97785	3283.61	23873.5	24098.3	-82.1686	76.2202	-0.00392552	3.91856e-05	1.67593	1.64481	1	13	0.133894	5.55616e-06	8.27715e-05	0.0000000E+000	-100.096	5.6543e-06	4.11097e-05	4.14967e-05	82.1686	9.06219e-08
3.55114	3661.75	26539.9	26791.3	-82.1444	77.2614	-0.0039113	2.1599e-05	1.6887	1.65716	1	13	0.133896	4.99771e-06	8.28123e-05	0.0000000E+000	-100.064	5.10151e-06	3.69752e-05	3.73255e-05	82.1444	4.08286e-08
3.1604	4277.96	29598	29905.6	-81.7757	78.7882	-0.00390676	-1.5669e-05	1.70144	1.66662	1	14	0.133911	4.4778e-06	8.2753e-05	0.0000000E+000	-100.096	4.78334e-06	3.30947e-05	3.34385e-05	81.7757	-5.93725e-08
2.81836	4698.42	32907.4	33241.1	-81.8744	80.0836	-0.00390852	1.7177e-05	1.71605	1.68177	1	14	0.133909	4.02841e-06	8.27227e-05	0.0000000E+000	-100.104	4.25208e-06	2.97812e-05	3.00833e-05	81.8744	-3.02622e-08
2.51367	5365.2	36381.8	36775.3	-81.6111	81.5277	-0.00391121	2.58818e-06	1.74031	1.70327	1	14	0.133907	3.64121e-06	8.28321e-05	0.0000000E+000	-100.104	3.9671e-06	2.69012e-05	2.71922e-05	81.6111	1.09416e-07
2.23982	6253.79	40439.3	40920.1	-81.2091	83.1424	-0.00391277	-4.55801e-06	1.75712	1.71608	1	14	0.133905	3.27236e-06	8.2724e-05	0.0000000E+000	-100.048	3.73483e-06	2.41508e-05	2.44379e-05	81.2091	-1.08091e-07
1.99706	7121.19	45018.5	45578.2	-81.0112	84.9457	-0.00390795	1.351e-05	1.77026	1.72705	1	14	0.133901	2.93782e-06	8.27817e-05	0.0000000E+000	-100.112	3.42798e-06	2.16709e-05	2.19403e-05	81.0112	5.76739e-08
1.77961	8011.15	49937.6	50576.1	-80.8861	86.964	-0.00390743	-2.13355e-06	1.79088	1.74595	1	14	0.1339	2.64749e-06	8.28091e-05	0.0000000E+000	-100.072	3.13187e-06	1.95226e-05	1.97722e-05	80.8861	2.74148e-08
1.58469	9156.75	55367.9	56120	-80.6094	89.2231	-0.00390263	5.66674e-06	1.81392	1.76563	1	14	0.133899	2.38595e-06	8.27247e-05	0.0000000E+000	-100.056	2.90741e-06	1.75802e-05	1.7819e-05	80.6094	-8.43847e-08
1.41224	10537.4	61299.4	62198.5	-80.2461	91.7521	-0.0039049	2.90066e-06	1.83847	1.7857	1	14	0.133896	2.15271e-06	8.28496e-05	0.0000000E+000	-100.072	2.7238e-06	1.58452e-05	1.60776e-05	80.2461	1.24878e-07
1.25967	12154.4	67855.8	68935.7	-79.8448	94.5799	-0.00390012	1.19669e-06	1.86198	1.8041	1	14	0.133894	1.9423e-06	8.2719e-05	0.0000000E+000	-100.088	2.55766e-06	1.4279e-05	1.45063e-05	79.8448	-1.30573e-07
1.12249	13952.9	75217.6	76500.8	-79.4911	97.748	-0.00390707	4.78273e-06	1.88504	1.82233	1	14	0.133896	1.75025e-06	8.28452e-05	0.0000000E+000	-100.04	2.38414e-06	1.28525e-05	1.30718e-05	79.4911	1.26161e-07
1.00006	16017.5	83322.2	84847.8	-79.1184	101.297	-0.00390863	1.63934e-06	1.90999	1.84192	1	14	0.133897	1.57809e-06	8.27494e-05	0.0000000E+000	-100.08	2.22492e-06	1.15739e-05	1.17858e-05	79.1184	-9.58057e-08