File: data/DE_40_14_60.mpt
EC-Lab ASCII FILE
Nb header lines : 75

Potentio Electrochemical Impedance Spectroscopy

Run on channel : 2 (SN 20919)
User :
CE vs. WE compliance from -10 V to 10 V
Electrode connection : standard
Ewe ctrl range : min = -10.00 V, max = 10.00 V
Safety Limits :
	Do not start on E overload
Acquisition started on : 01/24/2020 09:55:50
Technique started on : 01/24/2020 09:55:51
Saved on :
	File : DE_40_14_60.mpr
	Directory : P:\Chemistry\Data\VMP3\Kyler\DOE\DE_40\2ND 60C\
	Host : 10.0.4.99
Device : VMP3 (SN 0183)
Address : USB
EC-Lab for windows v11.33 (software)
Internet server v11.32 (firmware)
Command interpretor v11.33 (firmware)
Electrode material :
Initial state :
Electrolyte :
Comments :
Electrode surface area : 0.001 cm²
Characteristic mass : 0.001 g
Equivalent Weight : 0.000 g/eq.
Density : 0.000 g/cm3
Record Analogic IN 1
Cycle Definition : Charge/Discharge alternance
External device configuration :
   device type : Thermostat
   device name : Other
   Analog OUT :
      mode : E/V
      unit : T/°C
      max : 400.000 at 5.000 V
      min : -100.000 at 0.000 V
      current : 0.000
   Analog IN 1 :
      unit : T/°C
      max : 400.000 at 5.000 V
      min : -100.000 at 0.000 V
Mode                Single sine
E (V)               0.0000
vs.                 Eoc
tE (h:m:s)          0:00:0.0000
record              0
dI                  1.000
unit dI             mA
dt (s)              0.000
fi                  1.000
unit fi             MHz
ff                  1.000
unit ff             Hz
Nd                  20
Points              per decade
spacing             Logarithmic
Va (mV)             128.0
pw                  0.50
Na                  3
corr                0
E range min (V)     -10.000
E range max (V)     10.000
I Range             Auto
Bandwidth           5
nc cycles           0
goto Ns'            0
nr cycles           0
inc. cycle          1

freq/Hz	Re(Z)/Ohm	-Im(Z)/Ohm	|Z|/Ohm	Phase(Z)/deg	time/s	<Ewe>/V	<I>/mA	Cs/µF	Cp/µF	cycle number	I Range	|Ewe|/V	|I|/A	(Q-Qo)/mA.h	Analog OUT/V	Analog IN 1/V	Re(Y)/Ohm-1	Im(Y)/Ohm-1	|Y|/Ohm-1	Phase(Y)/deg	dq/mA.h
1.00002e+06	55.9174	19.4487	59.2031	-19.1782	1.64647	0.00400709	0.00151139	0.00818318	0.000883106	1	11	0.000990478	1.67302e-05	3.16321e-07	0.0000000E+000	-100.11	0.0159536	0.00554882	0.016891	19.1782	3.16321e-07
891247	56.9945	16.9113	59.4505	-16.5266	2.24247	0.00443249	0.00145452	0.0105596	0.000854451	1	11	0.001691	2.84438e-05	4.98611e-07	0.0000000E+000	-100.118	0.0161258	0.00478481	0.0168207	16.5266	1.8229e-07
794333	58.8129	15.0315	60.7034	-14.3368	2.83849	0.00477108	0.00145768	0.0133296	0.000817321	1	11	0.00273955	4.51301e-05	8.27467e-07	0.0000000E+000	-100.142	0.0159605	0.0040792	0.0164735	14.3368	3.28856e-07
707950	60.7906	13.664	62.3073	-12.6679	3.43549	0.00507529	0.0014653	0.0164528	0.000791254	1	11	0.00422835	6.78628e-05	1.00505e-06	0.0000000E+000	-100.094	0.0156588	0.00351964	0.0160495	12.6679	1.77585e-07
630957	62.81	12.6565	64.0724	-11.3928	4.03047	0.00532198	0.00144504	0.01993	0.000777663	1	11	0.00622751	9.71949e-05	1.16879e-06	0.0000000E+000	-100.046	0.0152998	0.00308298	0.0156073	11.3928	1.6374e-07
562342	64.4966	11.8605	65.578	-10.4199	4.62547	0.00552539	0.00148983	0.0238626	0.000780557	1	11	0.00875066	0.000133439	1.47011e-06	0.0000000E+000	-100.046	0.0149975	0.00275794	0.015249	10.4199	3.01316e-07
501206	65.9583	11.0434	66.8764	-9.50483	5.22048	0.00568136	0.00145322	0.0287543	0.000784078	1	11	0.011825	0.000176819	2.17933e-06	0.0000000E+000	-100.11	0.0147477	0.0024692	0.014953	9.50483	7.09223e-07
446686	67.1803	10.3433	67.9718	-8.75269	5.81548	0.00579415	0.00144542	0.0344477	0.00079766	1	11	0.0154709	0.000227607	1.93182e-06	0.0000000E+000	-100.126	0.0145406	0.00223872	0.014712	8.75269	-2.47509e-07
398103	68.1588	9.66478	68.8406	-8.07062	6.41148	0.00584485	0.00150173	0.0413649	0.000815318	1	11	0.0197078	0.000286282	2.20664e-06	0.0000000E+000	-100.07	0.0143824	0.0020394	0.0145263	8.07062	2.74815e-07
354810	68.9876	8.97095	69.5684	-7.40901	7.00649	0.00585343	0.00154243	0.0500018	0.000831454	1	11	0.0246046	0.000353674	2.4386e-06	0.0000000E+000	-100.094	0.0142543	0.00185359	0.0143743	7.40901	2.31965e-07
316230	69.6514	8.31368	70.1458	-6.8067	7.6015	0.00584057	0.00148296	0.0605374	0.000850368	1	11	0.0301683	0.00043008	1.70758e-06	0.0000000E+000	-100.078	0.0141555	0.00168962	0.014256	6.8067	-7.31026e-07
281835	70.177	7.70695	70.5989	-6.2672	8.19648	0.00582599	0.00140974	0.0732729	0.000873197	1	11	0.0364937	0.000516916	2.32218e-06	0.0000000E+000	-100.094	0.0140799	0.00154627	0.0141645	6.2672	6.146e-07
251188	70.5781	7.14006	70.9383	-5.7767	8.79147	0.00583661	0.0015508	0.0887401	0.000899005	1	11	0.0436098	0.000614756	1.24796e-06	0.0000000E+000	-100.11	0.0140252	0.00141886	0.0140968	5.7767	-1.07421e-06
223872	70.9016	6.61355	71.2094	-5.32901	9.38748	0.00584288	0.00155155	0.107495	0.000927217	1	11	0.0515765	0.000724294	1.47097e-06	0.0000000E+000	-100.086	0.0139824	0.00130425	0.0140431	5.32901	2.2301e-07
199544	71.165	6.15358	71.4305	-4.94203	9.98248	0.00582125	0.00138652	0.129615	0.000961929	1	11	0.0603251	0.000844529	2.98416e-06	0.0000000E+000	-100.094	0.0139476	0.00120604	0.0139996	4.94203	1.51319e-06
177832	71.3767	5.75803	71.6086	-4.61212	10.5775	0.0058222	0.00134991	0.155431	0.00100497	1	11	0.0698225	0.000975057	2.95952e-06	0.0000000E+000	-100.078	0.0139196	0.00112291	0.0139648	4.61212	-2.4634e-08
158486	71.5337	5.41629	71.7385	-4.32998	11.1735	0.00584131	0.00144748	0.185408	0.00105688	1	11	0.0800283	0.00111556	5.105e-06	0.0000000E+000	-100.11	0.0138997	0.00105244	0.0139395	4.32998	2.14547e-06
141256	71.6647	5.15105	71.8496	-4.11118	11.7695	0.00585608	0.00149098	0.218735	0.00112424	1	11	0.0909546	0.0012659	6.14392e-06	0.0000000E+000	-100.07	0.0138821	0.000997807	0.013918	4.11118	1.03892e-06
125909	71.773	4.91791	71.9413	-3.9198	12.3665	0.00584159	0.00138784	0.257029	0.00120112	1	11	0.102719	0.00142782	7.71095e-06	0.0000000E+000	-100.062	0.0138677	0.00095022	0.0139002	3.9198	1.56704e-06
112205	71.8675	4.7528	72.0245	-3.78362	12.8255	0.00581145	0.00078087	0.298441	0.00129956	1	11	0.115449	0.00160291	7.11942e-06	0.0000000E+000	-100.07	0.0138539	0.000916197	0.0138842	3.78362	-5.9153e-07
100004	71.9494	4.63693	72.0987	-3.68744	13.2855	0.00585052	0.00138209	0.343221	0.00141964	1	11	0.129236	0.00179248	8.78889e-06	0.0000000E+000	-100.118	0.0138412	0.000892022	0.0138699	3.68744	1.66947e-06
89129.3	72.0174	4.56854	72.1622	-3.62978	13.8815	0.00590777	0.00153355	0.390861	0.0015666	1	11	0.129364	0.00179269	1.25047e-05	0.0000000E+000	-100.094	0.0138299	0.000877319	0.0138577	3.62978	3.71584e-06
79433.3	72.0714	4.56148	72.2156	-3.62149	14.4775	0.00595293	0.00166792	0.43925	0.00175252	1	11	0.129634	0.00179509	1.56377e-05	0.0000000E+000	-100.086	0.0138198	0.00087467	0.0138474	3.62149	3.13298e-06
70795	72.1191	4.60564	72.2661	-3.65403	15.0725	0.00597698	0.00151813	0.488122	0.00198262	1	11	0.129558	0.00179279	1.69995e-05	0.0000000E+000	-100.11	0.0138096	0.000881903	0.0138378	3.65403	1.36175e-06
63093.8	72.1634	4.69959	72.3162	-3.72609	15.6685	0.00599381	0.00157648	0.536752	0.00226684	1	11	0.129562	0.00179161	1.89207e-05	0.0000000E+000	-100.134	0.0137989	0.000898646	0.0138282	3.72609	1.92124e-06
56237	72.2055	4.84536	72.3679	-3.83909	16.2645	0.00602718	0.00160399	0.584079	0.00261838	1	11	0.129442	0.00178866	1.99839e-05	0.0000000E+000	-100.062	0.0137873	0.000925197	0.0138183	3.83909	1.06323e-06
50122.5	72.2348	5.05268	72.4113	-4.00121	16.8605	0.00603149	0.00143543	0.628443	0.00305982	1	11	0.129426	0.00178737	2.15064e-05	0.0000000E+000	-100.086	0.0137763	0.000963626	0.01381	4.00121	1.52245e-06
44666.7	72.274	5.319	72.4694	-4.20909	17.4555	0.00604222	0.00145475	0.669894	0.00360875	1	11	0.129385	0.00178537	2.07303e-05	0.0000000E+000	-100.086	0.0137617	0.00101279	0.0137989	4.20909	-7.76031e-07
39814.1	72.3068	5.64894	72.5271	-4.46714	18.0525	0.00609942	0.00180489	0.707647	0.00429289	1	11	0.12931	0.00178293	2.16062e-05	0.0000000E+000	-100.102	0.0137461	0.00107391	0.0137879	4.46714	8.75815e-07
35481	72.3558	6.04985	72.6083	-4.77953	18.5115	0.0060681	0.00143432	0.741446	0.00514751	1	11	0.140279	0.00193199	2.11668e-05	0.0000000E+000	-100.046	0.0137246	0.00114755	0.0137725	4.77953	-4.39405e-07
31621.1	72.3948	6.51764	72.6876	-5.14442	19.1075	0.00609856	0.00163205	0.77224	0.00620887	1	11	0.130358	0.0017934	2.16854e-05	0.0000000E+000	-100.094	0.0137021	0.00123359	0.0137575	5.14442	5.1866e-07
28188.1	72.4493	7.06008	72.7925	-5.56581	19.5675	0.00608341	0.00148542	0.799733	0.00752299	1	11	0.139815	0.00192074	2.32873e-05	0.0000000E+000	-100.102	0.0136729	0.00133241	0.0137377	5.56581	1.60187e-06
25116.9	72.5025	7.68997	72.9092	-6.05443	20.1625	0.00610895	0.001525	0.824004	0.00916672	1	11	0.130061	0.00178388	2.13149e-05	0.0000000E+000	-100.094	0.0136392	0.00144664	0.0137157	6.05443	-1.97241e-06
22389	72.5656	8.4072	73.051	-6.60863	20.6225	0.00610048	0.00147241	0.845538	0.0111991	1	11	0.137749	0.00188565	2.31023e-05	0.0000000E+000	-100.094	0.0135981	0.00157543	0.0136891	6.60863	1.78737e-06
19948.8	72.6336	9.22621	73.2172	-7.23917	21.2175	0.00612837	0.00165175	0.86473	0.0137309	1	11	0.129723	0.00177176	2.20499e-05	0.0000000E+000	-100.11	0.0135491	0.00172106	0.013658	7.23917	-1.05236e-06
17786.9	72.7158	10.1491	73.4206	-7.94561	21.6775	0.00612662	0.00160752	0.881638	0.0168467	1	11	0.13563	0.0018473	2.24679e-05	0.0000000E+000	-100.07	0.0134894	0.00188275	0.0136202	7.94561	4.17967e-07
15847.7	72.7993	11.1974	73.6554	-8.74426	22.2735	0.0061319	0.00156032	0.896883	0.0207283	1	11	0.129224	0.00175444	2.23805e-05	0.0000000E+000	-100.062	0.0134189	0.00206399	0.0135767	8.74426	-8.73156e-08
14121.9	72.9074	12.3765	73.9504	-9.63446	22.7335	0.00612999	0.00152315	0.910606	0.0255061	1	11	0.13352	0.00180554	2.30182e-05	0.0000000E+000	-100.11	0.0133318	0.00226316	0.0135226	9.63446	6.37692e-07
12590.9	73.0251	13.6931	74.2978	-10.6204	23.1935	0.00612595	0.0014529	0.923123	0.0313555	1	11	0.137209	0.00184675	2.40089e-05	0.0000000E+000	-100.078	0.0132288	0.00248057	0.0134594	10.6204	9.90641e-07
11217.7	73.163	15.1816	74.7215	-11.7227	23.6525	0.00613837	0.00155474	0.934542	0.0385782	1	11	0.140357	0.0018784	2.27351e-05	0.0000000E+000	-100.07	0.0131039	0.0027191	0.013383	11.7227	-1.27377e-06
10002.2	73.3132	16.8366	75.2217	-12.9339	24.2485	0.00613708	0.00144639	0.945078	0.047347	1	11	0.129482	0.00172133	2.08686e-05	0.0000000E+000	-100.086	0.0129568	0.00297556	0.013294	12.9339	-1.86649e-06
8914.93	73.4872	18.6903	75.8268	-14.2697	24.7309	0.00615779	0.00170323	0.955183	0.0580327	1	11	0.131406	0.00173297	2.16707e-05	0.0000000E+000	-100.094	0.0127811	0.00325065	0.013188	14.2697	8.02112e-07
7944	73.6853	20.7693	76.5564	-15.7413	25.257	0.00616467	0.00182533	0.964626	0.070997	1	11	0.132943	0.00173653	2.1575e-05	0.0000000E+000	-100.086	0.0125724	0.00354372	0.0130623	15.7413	-9.57304e-08
7082.23	73.9126	23.0785	77.4318	-17.3405	25.8339	0.006176	0.0019452	0.973738	0.0865005	1	11	0.134141	0.00173238	2.34363e-05	0.0000000E+000	-100.11	0.0123276	0.00384918	0.0129146	17.3405	1.86132e-06
6307.73	74.1693	25.6752	78.4875	-19.0943	26.4685	0.00618771	0.00185079	0.982727	0.105162	1	11	0.135057	0.00172074	2.22114e-05	0.0000000E+000	-100.062	0.0120399	0.00416785	0.0127409	19.0943	-1.22493e-06
5621.06	74.4584	28.5619	79.7486	-20.9866	27.1693	0.0061978	0.00183388	0.991323	0.127158	1	11	0.13571	0.00170173	2.30368e-05	0.0000000E+000	-100.094	0.0117076	0.00449098	0.0125394	20.9866	8.25436e-07
5011.6	74.78	31.7552	81.2431	-23.0084	27.9297	0.00619015	0.00180061	1.00007	0.152787	1	11	0.136141	0.00167573	2.23433e-05	0.0000000E+000	-100.078	0.0113295	0.00481107	0.0123087	23.0084	-6.93572e-07
4466.43	75.1491	35.3279	83.0389	-25.1784	28.6897	0.00619923	0.00180266	1.00865	0.182564	1	11	0.136402	0.00164262	2.17598e-05	0.0000000E+000	-100.062	0.0108984	0.00512336	0.0120426	25.1784	-5.83425e-07
3981.27	75.5682	39.2976	85.1754	-27.4757	29.4497	0.00619243	0.00183797	1.01726	0.216539	1	11	0.136517	0.00160278	2.08692e-05	0.0000000E+000	-100.11	0.0104162	0.00541674	0.0117405	27.4757	-8.90657e-07
3546.6	76.0383	43.7357	87.7191	-29.9066	30.2099	0.00619163	0.00183183	1.02606	0.255068	1	11	0.1365	0.0015561	2.01284e-05	0.0000000E+000	-100.126	0.00988199	0.00568391	0.0114	29.9066	-7.40727e-07
3161.01	76.5717	48.6499	90.7196	-32.4299	30.9697	0.00618933	0.00178797	1.03493	0.297628	1	11	0.13639	0.00150342	1.92382e-05	0.0000000E+000	-100.03	0.00930393	0.00591126	0.011023	32.4299	-8.90244e-07
2817.3	77.1656	54.1208	94.2528	-35.0442	31.7299	0.00619532	0.00188814	1.04382	0.344162	1	11	0.136204	0.0014451	1.85751e-05	0.0000000E+000	-100.054	0.00868631	0.00609222	0.0106098	35.0442	-6.63092e-07
2510.8	77.8329	60.1964	98.3949	-37.7186	32.4897	0.00617936	0.0017101	1.05302	0.394124	1	11	0.135964	0.00138182	1.93075e-05	0.0000000E+000	-100.086	0.00803929	0.00621764	0.0101631	37.7186	7.3239e-07
2237.85	78.5694	66.9527	103.227	-40.4359	33.2499	0.00619388	0.00189984	1.06224	0.446859	1	11	0.135687	0.00131445	2.09386e-05	0.0000000E+000	-100.094	0.00737338	0.00628321	0.00968739	40.4359	1.63106e-06
1995.64	79.3836	74.4197	108.812	-43.1514	34.0097	0.00617421	0.00164801	1.07164	0.501271	1	11	0.135382	0.00124418	2.03113e-05	0.0000000E+000	-100.054	0.00670467	0.00628542	0.00919016	43.1514	-6.27309e-07
1778.29	80.2939	82.7843	115.327	-45.8749	34.7699	0.0061909	0.0018333	1.08111	0.55706	1	11	0.13508	0.00117128	2.11894e-05	0.0000000E+000	-100.11	0.00603698	0.00622422	0.00867099	45.8749	8.78138e-07
1585.51	81.2862	92.0419	122.797	-48.5509	35.5297	0.0061983	0.00188144	1.0906	0.612717	1	11	0.134781	0.00109759	2.23065e-05	0.0000000E+000	-100.078	0.00539063	0.00610391	0.0081435	48.5509	1.11711e-06
1411.84	82.3951	102.457	131.478	-51.194	36.2902	0.00619715	0.00191897	1.10026	0.668148	1	11	0.134489	0.0010229	2.30868e-05	0.0000000E+000	-100.062	0.00476648	0.00592703	0.00760586	51.194	7.80281e-07
1258.79	83.5911	113.921	141.299	-53.7301	37.05	0.00619258	0.00187604	1.10985	0.721424	1	11	0.134216	0.000949868	2.30851e-05	0.0000000E+000	-100.078	0.00418678	0.0057059	0.00707718	53.7301	-1.67272e-09
1121.79	84.9188	126.731	152.552	-56.1752	37.8084	0.00619662	0.00190875	1.1195	0.772603	1	11	0.133967	0.000878174	2.35718e-05	0.0000000E+000	-100.07	0.00364896	0.00544565	0.00655515	56.1752	4.86709e-07
1000.32	86.3744	140.919	165.284	-58.4943	38.5677	0.00619366	0.00183255	1.12905	0.820712	1	11	0.133753	0.00080923	2.32488e-05	0.0000000E+000	-100.062	0.00316173	0.00515833	0.0060502	58.4943	-3.23014e-07
891.427	87.955	156.826	179.807	-60.7143	39.3264	0.00619657	0.00189407	1.13846	0.866045	1	11	0.133554	0.000742764	2.30133e-05	0.0000000E+000	-100.102	0.0027205	0.00485072	0.00556153	60.7143	-2.35469e-07
794.238	89.7163	174.57	196.275	-62.8002	40.0859	0.00619806	0.00186805	1.14789	0.908051	1	11	0.133386	0.000679588	2.38301e-05	0.0000000E+000	-100.094	0.00232885	0.00453149	0.00509489	62.8002	8.16773e-07
707.509	91.6537	194.397	214.92	-64.7573	40.8485	0.00619692	0.00189666	1.15717	0.946724	1	11	0.133239	0.000619947	2.37039e-05	0.0000000E+000	-100.086	0.00198424	0.00420858	0.00465289	64.7573	-1.26166e-07
631.01	93.7511	216.253	235.7	-66.562	41.6064	0.0061889	0.00185373	1.16633	0.981808	1	11	0.133117	0.000564773	2.37303e-05	0.0000000E+000	-100.054	0.00168755	0.00389263	0.00424268	66.562	2.63266e-08
562.339	96.095	240.778	259.246	-68.243	42.3629	0.00619664	0.00191803	1.17545	1.01395	1	11	0.133017	0.000513092	2.42296e-05	0.0000000E+000	-100.054	0.0014298	0.00358256	0.00385734	68.243	4.99291e-07
501.444	98.6849	267.956	285.551	-69.7819	43.1202	0.00619493	0.00181953	1.1845	1.04303	1	11	0.132926	0.000465507	2.42627e-05	0.0000000E+000	-100.078	0.00121028	0.00328623	0.00350201	69.7819	3.30969e-08
446.859	101.53	298.544	315.336	-71.2177	44.1269	0.00619045	0.000139604	1.193	1.06933	1	12	0.135796	0.000430641	2.4569e-05	0.0000000E+000	-100.102	0.00102105	0.00300235	0.00317122	71.2177	3.06307e-07
398.089	104.726	332.661	348.756	-72.5253	44.8897	0.00618484	0.000142177	1.20182	1.09345	1	12	0.135174	0.000387588	2.4716e-05	0.0000000E+000	-100.046	0.000861017	0.002735	0.00286733	72.5253	1.4701e-07
354.66	108.297	370.655	386.152	-73.7128	45.6499	0.0061871	0.000171941	1.21071	1.11548	1	12	0.13466	0.000348722	2.45219e-05	0.0000000E+000	-100.062	0.000726275	0.00248573	0.00258965	73.7128	-1.94073e-07
316.316	112.216	412.666	427.651	-74.7875	46.4069	0.00619312	0.00013964	1.21927	1.13532	1	12	0.134251	0.000313926	2.48456e-05	0.0000000E+000	-100.086	0.000613585	0.00225642	0.00233835	74.7875	3.23715e-07
281.894	116.628	459.784	474.345	-75.7667	47.1624	0.00619019	0.000136077	1.22795	1.15372	1	12	0.133912	0.000282309	2.46733e-05	0.0000000E+000	-100.07	0.000518338	0.00204345	0.00210817	75.7667	-1.72271e-07
251.044	121.594	512.65	526.873	-76.6567	47.9189	0.00619459	0.000156514	1.23666	1.17079	1	12	0.133652	0.000253671	2.48542e-05	0.0000000E+000	-100.062	0.000438027	0.00184675	0.00189799	76.6567	1.80879e-07
223.925	127.021	570.786	584.749	-77.454	48.6817	0.00618974	0.00014663	1.24521	1.18646	1	12	0.133431	0.000228185	2.50222e-05	0.0000000E+000	-100.07	0.00037148	0.0016693	0.00171014	77.454	1.67961e-07
199.553	133.228	636.019	649.823	-78.1692	49.4432	0.00619879	0.000128204	1.25398	1.20127	1	12	0.133251	0.000205058	2.5305e-05	0.0000000E+000	-100.054	0.000315504	0.00150619	0.00153888	78.1692	2.82842e-07
177.781	140.112	709.054	722.765	-78.8221	50.2113	0.00620326	0.000154611	1.26257	1.21512	1	12	0.133111	0.000184169	2.54086e-05	0.0000000E+000	-100.086	0.000268214	0.00135733	0.00138358	78.8221	1.03591e-07
158.428	147.92	790.242	803.967	-79.3979	50.9778	0.00620125	0.000149837	1.27124	1.22821	1	12	0.133	0.00016543	2.54002e-05	0.0000000E+000	-100.102	0.00022885	0.0012226	0.00124383	79.3979	-8.46033e-09
141.311	156.464	879.875	893.678	-79.9168	51.7309	0.00619288	0.000152205	1.28004	1.2408	1	12	0.132906	0.000148718	2.5411e-05	0.0000000E+000	-100.086	0.000195907	0.00110169	0.00111897	79.9168	1.08146e-08
125.846	166.272	981.126	995.116	-80.3814	52.4864	0.00619619	0.000146497	1.28901	1.25302	1	12	0.132835	0.000133487	2.54337e-05	0.0000000E+000	-100.102	0.000167909	0.000990781	0.00100491	80.3814	2.27535e-08
112.19	177.069	1093.07	1107.32	-80.7985	53.2319	0.00619103	0.000118784	1.29783	1.26464	1	12	0.132771	0.000119903	2.55322e-05	0.0000000E+000	-100.086	0.000144409	0.000891459	0.000903079	80.7985	9.84623e-08