File: data/DE_40_6_60.mpt
EC-Lab ASCII FILE
Nb header lines : 75

Potentio Electrochemical Impedance Spectroscopy

Run on channel : 2 (SN 20919)
User :
CE vs. WE compliance from -10 V to 10 V
Electrode connection : standard
Ewe ctrl range : min = -10.00 V, max = 10.00 V
Safety Limits :
	Do not start on E overload
Acquisition started on : 01/24/2020 09:52:15
Technique started on : 01/24/2020 09:52:16
Saved on :
	File : DE_40_6_60.mpr
	Directory : P:\Chemistry\Data\VMP3\Kyler\DOE\DE_40\2ND 60C\
	Host : 10.0.4.99
Device : VMP3 (SN 0183)
Address : USB
EC-Lab for windows v11.33 (software)
Internet server v11.32 (firmware)
Command interpretor v11.33 (firmware)
Electrode material :
Initial state :
Electrolyte :
Comments :
Electrode surface area : 0.001 cm²
Characteristic mass : 0.001 g
Equivalent Weight : 0.000 g/eq.
Density : 0.000 g/cm3
Record Analogic IN 1
Cycle Definition : Charge/Discharge alternance
External device configuration :
   device type : Thermostat
   device name : Other
   Analog OUT :
      mode : E/V
      unit : T/°C
      max : 400.000 at 5.000 V
      min : -100.000 at 0.000 V
      current : 0.000
   Analog IN 1 :
      unit : T/°C
      max : 400.000 at 5.000 V
      min : -100.000 at 0.000 V
Mode                Single sine
E (V)               0.0000
vs.                 Eoc
tE (h:m:s)          0:00:0.0000
record              0
dI                  1.000
unit dI             mA
dt (s)              0.000
fi                  1.000
unit fi             MHz
ff                  1.000
unit ff             Hz
Nd                  20
Points              per decade
spacing             Logarithmic
Va (mV)             128.0
pw                  0.50
Na                  3
corr                0
E range min (V)     -10.000
E range max (V)     10.000
I Range             Auto
Bandwidth           5
nc cycles           0
goto Ns'            0
nr cycles           0
inc. cycle          1

freq/Hz	Re(Z)/Ohm	-Im(Z)/Ohm	|Z|/Ohm	Phase(Z)/deg	time/s	<Ewe>/V	<I>/mA	Cs/µF	Cp/µF	cycle number	I Range	|Ewe|/V	|I|/A	(Q-Qo)/mA.h	Analog OUT/V	Analog IN 1/V	Re(Y)/Ohm-1	Im(Y)/Ohm-1	|Y|/Ohm-1	Phase(Y)/deg	dq/mA.h
1.00002e+06	60.5052	20.6884	63.9445	-18.8769	1.64649	-0.0119508	0.00171508	0.00769283	0.000805253	1	11	0.00106115	1.65949e-05	3.82488e-07	0.0000000E+000	-100.102	0.0147975	0.00505965	0.0156386	18.8769	3.82488e-07
891247	61.8536	18.3499	64.5181	-16.5239	2.24248	-0.0115383	0.0016019	0.0097317	0.000787213	1	11	0.00181392	2.81149e-05	7.69534e-07	0.0000000E+000	-100.11	0.0148594	0.00440829	0.0154995	16.5239	3.87046e-07
794333	63.692	16.4479	65.7815	-14.4798	2.83748	-0.0111904	0.00157625	0.0121817	0.000761589	1	11	0.00293121	4.45598e-05	9.95735e-07	0.0000000E+000	-100.086	0.014719	0.00380105	0.0152018	14.4798	2.26201e-07
707950	66.1006	14.9485	67.7698	-12.743	3.43248	-0.010892	0.00157495	0.015039	0.000731717	1	11	0.00453068	6.6854e-05	1.32041e-06	0.0000000E+000	-100.102	0.0143924	0.00325481	0.0147558	12.743	3.24679e-07
630957	68.0912	13.798	69.4752	-11.4553	4.02848	-0.010641	0.0015809	0.0182812	0.000721071	1	11	0.00663983	9.55713e-05	1.50678e-06	0.0000000E+000	-100.102	0.0141069	0.00285863	0.0143936	11.4553	1.8637e-07
562342	69.7687	12.8711	70.946	-10.4526	4.62448	-0.0104477	0.00151213	0.0219889	0.000723735	1	11	0.00929698	0.000131043	1.94919e-06	0.0000000E+000	-100.102	0.0138613	0.00255718	0.0140952	10.4526	4.42409e-07
501206	71.3017	11.9887	72.3025	-9.54449	5.22147	-0.0102784	0.00178403	0.0264869	0.000728232	1	11	0.0125268	0.000173255	2.12651e-06	0.0000000E+000	-100.15	0.0136393	0.00229333	0.0138308	9.54449	1.77316e-07
446686	72.5416	11.2293	73.4056	-8.7994	5.81749	-0.0101721	0.00157216	0.0317298	0.000742525	1	11	0.0163651	0.00022294	2.10053e-06	0.0000000E+000	-100.062	0.0134626	0.00208398	0.0136229	8.7994	-2.59763e-08
398103	73.5235	10.4152	74.2576	-8.06273	6.41249	-0.0101238	0.00172791	0.0383847	0.000755108	1	11	0.0208037	0.000280156	2.39822e-06	0.0000000E+000	-100.062	0.0133335	0.00188879	0.0134666	8.06273	2.97682e-07
354810	74.3672	9.72687	75.0006	-7.45171	7.00849	-0.0101016	0.00175486	0.046116	0.000775654	1	11	0.0259163	0.000345548	3.16598e-06	0.0000000E+000	-100.086	0.0132206	0.00172919	0.0133332	7.45171	7.67766e-07
316230	74.9989	9.06046	75.5442	-6.8884	7.60549	-0.0101133	0.00180764	0.0555478	0.000799033	1	11	0.0317086	0.000419735	4.39199e-06	0.0000000E+000	-100.078	0.0131417	0.00158762	0.0132373	6.8884	1.22601e-06
281835	75.5193	8.42888	75.9883	-6.36855	8.20249	-0.0101397	0.00162402	0.0669971	0.000824333	1	11	0.0383081	0.000504132	5.32253e-06	0.0000000E+000	-100.118	0.0130787	0.00145974	0.0131599	6.36855	9.30541e-07
251188	75.9433	7.88079	76.3511	-5.92449	8.79849	-0.0101405	0.00163164	0.0803992	0.000856566	1	11	0.0457333	0.000598986	5.50888e-06	0.0000000E+000	-100.094	0.0130274	0.00135188	0.0130974	5.92449	1.86347e-07
223872	76.2585	7.38426	76.6151	-5.53082	9.39449	-0.0101402	0.00157385	0.0962751	0.000894332	1	11	0.0540338	0.000705263	5.42652e-06	0.0000000E+000	-100.102	0.0129915	0.00125799	0.0130523	5.53082	-8.23567e-08
199544	76.5014	6.96288	76.8176	-5.20053	9.99148	-0.010153	0.00154152	0.11455	0.000941131	1	11	0.0631173	0.000821652	6.80692e-06	0.0000000E+000	-100.07	0.0129643	0.00117996	0.0130178	5.20053	1.3804e-06
177832	76.6968	6.62252	76.9822	-4.93506	10.5875	-0.010126	0.00170228	0.135141	0.00100012	1	11	0.0729906	0.000948149	7.56747e-06	0.0000000E+000	-100.07	0.0129419	0.00111749	0.01299	4.93506	7.60553e-07
158486	76.8568	6.33972	77.1179	-4.7155	11.1825	-0.0101185	0.00154449	0.158401	0.0010705	1	11	0.0836228	0.00108435	8.43744e-06	0.0000000E+000	-100.094	0.0129233	0.00106601	0.0129672	4.7155	8.69963e-07
141256	76.9786	6.14221	77.2232	-4.56204	11.7775	-0.0101152	0.00168518	0.183438	0.00116049	1	11	0.0949936	0.00123012	7.68185e-06	0.0000000E+000	-100.102	0.0129084	0.00102998	0.0129495	4.56204	-7.55582e-07
125909	77.084	6.00789	77.3178	-4.4566	12.3745	-0.0101252	0.00155956	0.210397	0.00127036	1	11	0.107229	0.00138686	6.45164e-06	0.0000000E+000	-100.07	0.0128945	0.00100499	0.0129336	4.4566	-1.23022e-06
112205	77.1778	5.95	77.4068	-4.40848	12.8345	-0.0101175	0.00148802	0.238392	0.00140853	1	11	0.120485	0.00155651	5.67823e-06	0.0000000E+000	-100.11	0.0128805	0.00099302	0.0129188	4.40848	-7.7341e-07
100004	77.2641	5.95137	77.4929	-4.40459	13.2935	-0.0101089	0.00162573	0.267416	0.00157724	1	11	0.134889	0.00174067	4.23967e-06	0.0000000E+000	-100.126	0.0128663	0.000991044	0.0129044	4.40459	-1.43855e-06
89129.3	77.3346	6.02861	77.5693	-4.45747	13.8885	-0.0100439	0.00164023	0.296198	0.00178911	1	11	0.129995	0.00167586	4.96582e-07	0.0000000E+000	-100.086	0.0128527	0.00100193	0.0128917	4.45747	-3.74309e-06
79433.3	77.3918	6.16799	77.6372	-4.55674	14.4835	-0.0100028	0.00176233	0.324843	0.00205032	1	11	0.129685	0.0016704	7.64606e-07	0.0000000E+000	-100.086	0.0128397	0.0010233	0.0128804	4.55674	2.68024e-07
70795	77.4463	6.39025	77.7095	-4.7169	15.0795	-0.00998182	0.0017666	0.351803	0.00237896	1	11	0.129538	0.00166695	2.78319e-06	0.0000000E+000	-100.094	0.0128249	0.0010582	0.0128684	4.7169	2.01858e-06
63093.8	77.5052	6.6822	77.7927	-4.92764	15.6745	-0.00995285	0.00176066	0.377497	0.00278532	1	11	0.129579	0.00166569	3.09516e-06	0.0000000E+000	-100.078	0.0128072	0.00110419	0.0128547	4.92764	3.11974e-07
56237	77.5654	7.05231	77.8853	-5.1951	16.2695	-0.00993466	0.00189595	0.401297	0.00329017	1	11	0.129483	0.00166248	6.25377e-06	0.0000000E+000	-100.102	0.0127867	0.00116257	0.0128394	5.1951	3.1586e-06
50122.5	77.6195	7.50334	77.9813	-5.52153	16.8645	-0.00992429	0.00171568	0.423187	0.00391797	1	11	0.129461	0.00166016	6.98571e-06	0.0000000E+000	-100.126	0.0127641	0.00123388	0.0128236	5.52153	7.31944e-07
44666.7	77.6747	8.04707	78.0904	-5.91472	17.4605	-0.00990077	0.00179968	0.442791	0.00470196	1	11	0.129346	0.00165636	8.43803e-06	0.0000000E+000	-100.094	0.0127375	0.0013196	0.0128057	5.91472	1.45232e-06
39814.1	77.7443	8.68157	78.2275	-6.37172	18.0565	-0.00988796	0.00167684	0.460453	0.00567104	1	11	0.129365	0.00165371	7.79145e-06	0.0000000E+000	-100.11	0.0127043	0.00141866	0.0127832	6.37172	-6.46579e-07
35481	77.8308	9.43183	78.4002	-6.90963	18.5155	-0.00988913	0.00167963	0.475585	0.00688313	1	11	0.140292	0.00178944	7.68035e-06	0.0000000E+000	-100.086	0.0126624	0.00153448	0.0127551	6.90963	-1.11101e-07
31621.1	77.918	10.2795	78.5931	-7.51545	19.1115	-0.00985848	0.00183871	0.489634	0.00837615	1	11	0.13037	0.0016588	7.23378e-06	0.0000000E+000	-100.102	0.0126145	0.00166419	0.0127238	7.51545	-4.46565e-07
28188.1	78.029	11.2519	78.8361	-8.20557	19.5715	-0.00986499	0.00173185	0.501798	0.0102219	1	11	0.139744	0.00177259	5.89773e-06	0.0000000E+000	-100.086	0.0125547	0.00181041	0.0126846	8.20557	-1.33606e-06
25116.9	78.1454	12.3577	79.1165	-8.98615	20.1675	-0.00984424	0.00166829	0.512764	0.01251	1	11	0.130053	0.00164382	4.74805e-06	0.0000000E+000	-100.086	0.0124845	0.00197425	0.0126396	8.98615	-1.14968e-06
22389	78.2911	13.6004	79.4636	-9.85482	20.6265	-0.00985759	0.00162053	0.522678	0.0153108	1	11	0.137613	0.00173178	6.25645e-06	0.0000000E+000	-100.078	0.0123987	0.00215384	0.0125844	9.85482	1.5084e-06
19948.8	78.4555	15.0072	79.8779	-10.8289	21.2225	-0.00983246	0.00178612	0.531623	0.0187651	1	11	0.12959	0.00162235	5.74695e-06	0.0000000E+000	-100.062	0.0122962	0.00235205	0.0125191	10.8289	-5.09504e-07
17786.9	78.6552	16.5831	80.3843	-11.9055	21.6815	-0.00983335	0.00175211	0.539577	0.0229638	1	11	0.135301	0.00168318	7.25778e-06	0.0000000E+000	-100.078	0.0121726	0.0025664	0.0124402	11.9055	1.51083e-06
15847.7	78.8862	18.3518	80.9928	-13.0962	22.1415	-0.00983518	0.00172591	0.547236	0.0280958	1	11	0.140399	0.00173348	8.4382e-06	0.0000000E+000	-100.07	0.0120257	0.00279761	0.0123468	13.0962	1.18042e-06
14121.9	79.1451	20.3291	81.7142	-14.4055	22.7375	-0.00983212	0.00172163	0.554381	0.0343124	1	11	0.129737	0.00158769	9.56126e-06	0.0000000E+000	-100.078	0.011853	0.00304455	0.0122378	14.4055	1.12307e-06
12590.9	79.4588	22.5257	82.59	-15.8274	23.1965	-0.00983123	0.00170583	0.561158	0.0417432	1	11	0.133054	0.00161102	8.8402e-06	0.0000000E+000	-100.07	0.011649	0.00330235	0.012108	15.8274	-7.21065e-07
11217.7	79.826	24.9934	83.6472	-17.3853	23.6565	-0.00983089	0.00165454	0.567663	0.0506802	1	11	0.135787	0.00162333	8.09002e-06	0.0000000E+000	-100.078	0.0114088	0.00357209	0.011955	17.3853	-7.5018e-07
10002.2	80.2476	27.7136	84.8983	-19.0524	24.1155	-0.00982998	0.00165305	0.574156	0.0611813	1	11	0.137947	0.00162485	9.89906e-06	0.0000000E+000	-100.03	0.0111336	0.00384499	0.0117788	19.0524	1.80905e-06
8914.93	80.7385	30.7489	86.3956	-20.8491	24.5979	-0.00981706	0.00180005	0.580594	0.0735442	1	11	0.139609	0.00161592	1.00247e-05	0.0000000E+000	-100.11	0.0108168	0.00411952	0.0115747	20.8491	1.2567e-07
7944	81.3064	34.1208	88.1757	-22.7657	25.278	-0.00979663	0.00187439	0.587168	0.0879228	1	11	0.129324	0.00146666	8.24968e-06	0.0000000E+000	-100.054	0.0104575	0.00438854	0.011341	22.7657	-1.77506e-06
7082.23	81.9672	37.8455	90.2824	-24.7835	25.8549	-0.00978048	0.00202176	0.593793	0.104342	1	11	0.130087	0.00144089	7.28091e-06	0.0000000E+000	-100.094	0.0100562	0.00464311	0.0110764	24.7835	-9.68763e-07
6307.73	82.7321	42.0031	92.7839	-26.9169	26.4896	-0.00977625	0.00187532	0.600711	0.123107	1	11	0.130566	0.0014072	8.92392e-06	0.0000000E+000	-100.078	0.00961012	0.00487905	0.0107777	26.9169	1.643e-06
5621.06	83.6086	46.5803	95.7086	-29.1232	27.1903	-0.00977168	0.00195337	0.607855	0.14398	1	11	0.130794	0.00136658	9.71521e-06	0.0000000E+000	-100.102	0.00912745	0.00508512	0.0104484	29.1232	7.91289e-07
5011.6	84.6161	51.6083	99.1126	-31.3795	27.9507	-0.00977275	0.00187977	0.615352	0.166842	1	11	0.130823	0.00131994	9.97191e-06	0.0000000E+000	-100.07	0.00861381	0.00525367	0.0100895	31.3795	2.56709e-07
4466.43	85.7761	57.1742	103.085	-33.6855	28.7107	-0.0097753	0.00187605	0.623246	0.191722	1	11	0.13071	0.00126799	1.02615e-05	0.0000000E+000	-100.062	0.00807196	0.00538038	0.00970078	33.6855	2.89626e-07
3981.27	87.0927	63.3052	107.669	-36.0123	29.4707	-0.00976059	0.00200837	0.631479	0.2183	1	11	0.130483	0.00121189	1.14789e-05	0.0000000E+000	-100.062	0.00751273	0.00546079	0.0092877	36.0123	1.21741e-06
3546.6	88.6112	70.0834	112.976	-38.3408	30.2309	-0.00976829	0.00193738	0.640314	0.246405	1	11	0.130185	0.00115232	1.24147e-05	0.0000000E+000	-100.046	0.00694247	0.00549087	0.00885142	38.3408	9.35732e-07
3161.01	90.3273	77.5139	119.027	-40.6344	30.9907	-0.00976145	0.00204089	0.649553	0.275475	1	11	0.12984	0.00109084	1.34441e-05	0.0000000E+000	-100.046	0.0063757	0.00547127	0.00840145	40.6344	1.02943e-06
2817.3	92.2651	85.6843	125.915	-42.8821	31.7509	-0.00976824	0.00190578	0.659305	0.305304	1	11	0.129475	0.00102827	1.45863e-05	0.0000000E+000	-100.078	0.00581944	0.00540437	0.00794185	42.8821	1.14219e-06
2510.8	94.4633	94.6713	133.738	-45.063	32.5107	-0.00976939	0.00188682	0.669559	0.335516	1	11	0.129118	0.000965454	1.47349e-05	0.0000000E+000	-100.038	0.00528142	0.00529305	0.00747728	45.063	1.48639e-07
2237.85	96.9233	104.539	142.557	-47.1649	33.271	-0.00977849	0.00191228	0.680314	0.365838	1	11	0.128764	0.000903241	1.43977e-05	0.0000000E+000	-100.086	0.00476924	0.00514399	0.00701472	47.1649	-3.37228e-07
1995.64	99.6742	115.282	152.397	-49.153	34.0307	-0.00976262	0.0020972	0.691791	0.395864	1	11	0.128438	0.000842784	1.549e-05	0.0000000E+000	-100.094	0.00429168	0.00496372	0.00656179	49.153	1.09234e-06
1778.29	102.757	127.182	163.506	-51.0635	34.7909	-0.00978063	0.00188032	0.703705	0.425769	1	11	0.128138	0.000783686	1.54345e-05	0.0000000E+000	-100.07	0.00384364	0.00475727	0.00611597	51.0635	-5.55406e-08
1585.51	106.16	140.164	175.829	-52.8599	35.5507	-0.00976654	0.0020026	0.716168	0.455101	1	11	0.12787	0.000727243	1.53248e-05	0.0000000E+000	-100.102	0.00343383	0.00453373	0.00568734	52.8599	-1.09715e-07
1411.84	109.992	154.563	189.705	-54.5631	36.3122	-0.00977139	0.00191228	0.72934	0.484154	1	11	0.127625	0.000672758	1.539e-05	0.0000000E+000	-100.03	0.00305636	0.00429485	0.00527134	54.5631	6.51901e-08
1258.79	114.188	170.201	204.956	-56.1423	37.072	-0.00977167	0.00193606	0.742857	0.512277	1	11	0.127415	0.000621669	1.53276e-05	0.0000000E+000	-100.07	0.00271829	0.00405171	0.00487909	56.1423	-6.24331e-08
1121.79	118.822	187.434	221.924	-57.6277	37.8304	-0.00976719	0.00198531	0.756935	0.539942	1	11	0.127238	0.000573342	1.59638e-05	0.0000000E+000	-100.094	0.00241262	0.00380575	0.00450605	57.6277	6.36247e-07
1000.32	123.939	206.236	240.612	-58.9959	38.5897	-0.00976507	0.00190038	0.771465	0.566775	1	11	0.127086	0.000528176	1.59472e-05	0.0000000E+000	-100.11	0.00214078	0.00356229	0.00415606	58.9959	-1.65536e-08
891.427	129.532	226.972	261.333	-60.2867	39.3485	-0.00977232	0.00194015	0.786615	0.59336	1	11	0.12695	0.000485777	1.60302e-05	0.0000000E+000	-100.062	0.00189666	0.00332341	0.00382654	60.2867	8.29485e-08
794.238	135.704	249.792	284.274	-61.4861	40.108	-0.00977359	0.00191673	0.802215	0.619404	1	11	0.126834	0.000446166	1.67412e-05	0.0000000E+000	-100.054	0.00167926	0.00309104	0.00351773	61.4861	7.11032e-07
707.509	142.448	274.971	309.678	-62.6138	41.1224	-0.00977243	0.000167242	0.818089	0.644992	1	12	0.130993	0.000422998	1.6275e-05	0.0000000E+000	-100.102	0.00148537	0.00286725	0.00322916	62.6138	-4.66248e-07
631.01	149.779	302.282	337.354	-63.6418	41.8804	-0.00977854	0.00019212	0.834396	0.66992	1	12	0.13016	0.000385824	1.63991e-05	0.0000000E+000	-100.102	0.00131607	0.00265607	0.00296424	63.6418	1.24082e-07
562.339	157.847	332.494	368.06	-64.6046	42.6369	-0.00977765	0.000188594	0.851212	0.694654	1	12	0.129465	0.00035175	1.67677e-05	0.0000000E+000	-100.046	0.0011652	0.00245441	0.00271695	64.6046	3.68673e-07
501.444	166.617	365.533	401.716	-65.4955	43.3942	-0.00977517	0.000171549	0.868303	0.718929	1	12	0.128897	0.000320866	1.66287e-05	0.0000000E+000	-100.062	0.00103248	0.00226511	0.00248932	65.4955	-1.39017e-07
446.859	176.172	402.068	438.971	-66.3387	44.1509	-0.00977493	0.000178933	0.88583	0.743153	1	12	0.128426	0.000292563	1.69429e-05	0.0000000E+000	-100.062	0.000914251	0.00208655	0.00227806	66.3387	3.14148e-07
398.089	186.655	442.403	480.167	-67.1246	44.9137	-0.00977413	0.000180443	0.903695	0.767138	1	12	0.128034	0.000266645	1.69387e-05	0.0000000E+000	-100.07	0.000809569	0.00191882	0.00208261	67.1246	-4.14465e-09
354.66	198.059	486.799	525.548	-67.8605	45.6729	-0.00978362	0.000173634	0.921847	0.790921	1	12	0.127716	0.000243016	1.68103e-05	0.0000000E+000	-100.07	0.000717085	0.00176248	0.00190278	67.8605	-1.28406e-07
316.316	210.256	535.148	574.97	-68.5505	46.4299	-0.00977694	0.000192302	0.940212	0.814484	1	12	0.127451	0.000221666	1.70348e-05	0.0000000E+000	-100.03	0.000636	0.00161876	0.00173922	68.5505	2.24513e-07
281.894	223.658	588.827	629.873	-69.2014	47.1844	-0.00977295	0.000174193	0.958841	0.837945	1	12	0.12724	0.00020201	1.68425e-05	0.0000000E+000	-100.102	0.000563741	0.00148416	0.00158762	69.2014	-1.92323e-07
251.044	238.324	648.288	690.706	-69.8155	47.9409	-0.00977595	0.000173894	0.977917	0.861491	1	12	0.127066	0.000183965	1.70912e-05	0.0000000E+000	-100.07	0.000499552	0.00135888	0.00144779	69.8155	2.48691e-07
223.925	253.838	713.013	756.85	-70.4039	48.7037	-0.00976995	0.000184692	0.996827	0.884699	1	12	0.126918	0.000167693	1.72997e-05	0.0000000E+000	-100.118	0.000443137	0.00124474	0.00132127	70.4039	2.08495e-07
199.553	270.964	785.025	830.473	-70.957	49.4652	-0.00977338	0.000188906	1.01596	0.907808	1	12	0.126805	0.00015269	1.73326e-05	0.0000000E+000	-100.062	0.000392881	0.00113824	0.00120413	70.957	3.28754e-08
177.781	289.317	864.546	911.671	-71.4974	50.2333	-0.00977241	0.000208991	1.03549	0.931206	1	12	0.126711	0.000138988	1.7275e-05	0.0000000E+000	-100.11	0.000348095	0.00104019	0.00109689	71.4974	-5.75889e-08
158.428	309.336	952.152	1001.14	-72.002	50.9997	-0.00976531	0.000169043	1.05507	0.954341	1	12	0.126627	0.000126483	1.73811e-05	0.0000000E+000	-100.054	0.000308632	0.000949984	0.000998861	72.002	1.06109e-07
141.311	330.879	1048.28	1099.26	-72.4822	51.7529	-0.00977364	0.000192728	1.0744	0.977058	1	12	0.126569	0.00011514	1.73184e-05	0.0000000E+000	-100.062	0.000273823	0.000867515	0.000909704	72.4822	-6.26574e-08
125.846	353.963	1155.79	1208.78	-72.9727	52.5084	-0.00976473	0.000175906	1.09421	1.00039	1	12	0.12651	0.00010466	1.74525e-05	0.0000000E+000	-100.118	0.00024225	0.000791018	0.000827282	72.9727	1.34109e-07
112.19	379.262	1273.61	1328.88	-73.4173	53.2538	-0.00977301	0.000174507	1.11386	1.02313	1	12	0.12647	9.51705e-05	1.75987e-05	0.0000000E+000	-100.086	0.000214766	0.000721214	0.000752512	73.4173	1.46207e-07
100.032	406.171	1403.91	1461.49	-73.8641	54.0137	-0.00976745	0.000161732	1.13329	1.04576	1	12	0.126437	8.65128e-05	1.76394e-05	0.0000000E+000	-100.078	0.00019016	0.000657279	0.000684235	73.8641	4.06716e-08
89.116	435.897	1549.03	1609.19	-74.2834	54.7807	-0.00976755	0.000185846	1.15293	1.06834	1	12	0.126412	7.85564e-05	1.76157e-05	0.0000000E+000	-100.094	0.000168332	0.000598197	0.00062143	74.2834	-2.37261e-08
79.4155	467.774	1709.34	1772.19	-74.6953	55.5452	-0.00977403	0.000194014	1.17243	1.09075	1	12	0.126391	7.1319e-05	1.7737e-05	0.0000000E+000	-100.102	0.000148942	0.000544263	0.000564274	74.6953	1.21351e-07
70.8387	501.824	1885.4	1951.04	-75.0955	56.2964	-0.00976671	0.000184036	1.19164	1.11281	1	12	0.126367	6.4769e-05	1.77401e-05	0.0000000E+000	-100.038	0.000131832	0.000495304	0.000512548	75.0955	3.07052e-09
63.0823	538.973	2083.27	2151.86	-75.4948	57.0768	-0.00976686	0.000185658	1.21106	1.13509	1	12	0.126354	5.87183e-05	1.77758e-05	0.0000000E+000	-100.11	0.000116396	0.000449901	0.000464714	75.4948	3.56587e-08
56.2418	579.282	2300.99	2372.79	-75.8692	57.8213	-0.00976618	0.000182059	1.22983	1.15653	1	12	0.126341	5.32456e-05	1.77853e-05	0.0000000E+000	-100.11	0.00010289	0.000408693	0.000421445	75.8692	9.503e-09
50.1444	623.069	2543.92	2619.12	-76.2378	58.8282	-0.00976337	2.2182e-05	1.24765	1.17704	1	13	0.126717	4.83814e-05	1.78422e-05	0.0000000E+000	-100.086	9.08294e-05	0.000370847	0.000381808	76.2378	5.68943e-08
44.6712	671.005	2812.23	2891.17	-76.58	59.5922	-0.00976249	1.52275e-05	1.2669	1.19866	1	13	0.126629	4.37984e-05	1.78462e-05	0.0000000E+000	-100.086	8.02744e-05	0.000336436	0.00034588	76.58	4.02563e-09
39.8089	723.043	3110.2	3193.14	-76.9126	60.3547	-0.00976605	2.06959e-05	1.28544	1.21953	1	13	0.126561	3.96351e-05	1.78177e-05	0.0000000E+000	-100.078	7.09134e-05	0.000305037	0.000313171	76.9126	-2.85381e-08
35.4653	779.847	3442.44	3529.67	-77.2357	61.1051	-0.0097674	1.65325e-05	1.30362	1.23998	1	13	0.126511	3.5842e-05	1.78544e-05	0.0000000E+000	-100.054	6.25952e-05	0.000276311	0.000283313	77.2357	3.6705e-08
31.6296	841.03	3807.2	3898.99	-77.5431	61.8295	-0.00976602	1.57829e-05	1.32166	1.26017	1	13	0.126467	3.24359e-05	1.78969e-05	0.0000000E+000	-100.086	5.53232e-05	0.000250439	0.000256477	77.5431	4.25344e-08