File: data/DE_40_10_60.mpt
EC-Lab ASCII FILE
Nb header lines : 75

Potentio Electrochemical Impedance Spectroscopy

Run on channel : 2 (SN 20919)
User :
CE vs. WE compliance from -10 V to 10 V
Electrode connection : standard
Ewe ctrl range : min = -10.00 V, max = 10.00 V
Safety Limits :
	Do not start on E overload
Acquisition started on : 01/24/2020 09:53:32
Technique started on : 01/24/2020 09:53:33
Saved on :
	File : DE_40_10_60.mpr
	Directory : P:\Chemistry\Data\VMP3\Kyler\DOE\DE_40\2ND 60C\
	Host : 10.0.4.99
Device : VMP3 (SN 0183)
Address : USB
EC-Lab for windows v11.33 (software)
Internet server v11.32 (firmware)
Command interpretor v11.33 (firmware)
Electrode material :
Initial state :
Electrolyte :
Comments :
Electrode surface area : 0.001 cm²
Characteristic mass : 0.001 g
Equivalent Weight : 0.000 g/eq.
Density : 0.000 g/cm3
Record Analogic IN 1
Cycle Definition : Charge/Discharge alternance
External device configuration :
   device type : Thermostat
   device name : Other
   Analog OUT :
      mode : E/V
      unit : T/°C
      max : 400.000 at 5.000 V
      min : -100.000 at 0.000 V
      current : 0.000
   Analog IN 1 :
      unit : T/°C
      max : 400.000 at 5.000 V
      min : -100.000 at 0.000 V
Mode                Single sine
E (V)               0.0000
vs.                 Eoc
tE (h:m:s)          0:00:0.0000
record              0
dI                  1.000
unit dI             mA
dt (s)              0.000
fi                  1.000
unit fi             MHz
ff                  1.000
unit ff             Hz
Nd                  20
Points              per decade
spacing             Logarithmic
Va (mV)             128.0
pw                  0.50
Na                  3
corr                0
E range min (V)     -10.000
E range max (V)     10.000
I Range             Auto
Bandwidth           5
nc cycles           0
goto Ns'            0
nr cycles           0
inc. cycle          1

freq/Hz	Re(Z)/Ohm	-Im(Z)/Ohm	|Z|/Ohm	Phase(Z)/deg	time/s	<Ewe>/V	<I>/mA	Cs/µF	Cp/µF	cycle number	I Range	|Ewe|/V	|I|/A	(Q-Qo)/mA.h	Analog OUT/V	Analog IN 1/V	Re(Y)/Ohm-1	Im(Y)/Ohm-1	|Y|/Ohm-1	Phase(Y)/deg	dq/mA.h
1.00002e+06	72.0329	35.9192	80.4917	-26.5031	1.74648	0.0572574	0.00173626	0.00443084	0.000882339	1	11	0.00129389	1.60748e-05	3.11076e-07	0.0000000E+000	-100.094	0.011118	0.005544	0.0124236	26.5031	3.11076e-07
891247	74.9495	33.8229	82.2279	-24.2885	2.34248	0.057685	0.00178923	0.00527973	0.000893295	1	11	0.00222869	2.71038e-05	5.14039e-07	0.0000000E+000	-100.11	0.0110849	0.00500233	0.0121613	24.2885	2.02962e-07
794333	78.7886	32.2304	85.126	-22.2482	2.93748	0.0580354	0.00183997	0.00621659	0.000891166	1	11	0.00362727	4.26106e-05	7.27869e-07	0.0000000E+000	-100.054	0.0108727	0.00444775	0.0117473	22.2482	2.13831e-07
707950	82.7708	30.8463	88.3318	-20.4389	3.53248	0.0583203	0.00170671	0.00728812	0.000888763	1	11	0.00561133	6.35256e-05	9.02974e-07	0.0000000E+000	-100.11	0.0106082	0.00395338	0.011321	20.4389	1.75104e-07
630957	86.5261	29.6418	91.4626	-18.9103	4.12849	0.0585848	0.0017502	0.00850973	0.000893796	1	11	0.00823757	9.00649e-05	1.31817e-06	0.0000000E+000	-100.078	0.0103433	0.00354338	0.0109334	18.9103	4.15195e-07
562342	89.9839	28.3488	94.3438	-17.4867	4.72449	0.0587765	0.00173682	0.00998354	0.00090142	1	11	0.011547	0.000122393	1.84156e-06	0.0000000E+000	-100.094	0.0101097	0.00318499	0.0105995	17.4867	5.23386e-07
501206	93.1204	27.056	96.9713	-16.2011	5.32147	0.0589462	0.00186803	0.0117366	0.000913651	1	11	0.015545	0.000160306	2.17467e-06	0.0000000E+000	-100.078	0.00990281	0.00287724	0.0103123	16.2011	3.33118e-07
446686	95.8522	25.6827	99.2333	-14.9995	5.91749	0.0590559	0.00173627	0.0138732	0.000929274	1	11	0.0202627	0.000204193	2.92086e-06	0.0000000E+000	-100.094	0.00973391	0.00260811	0.0100773	14.9995	7.46185e-07
398103	98.2851	24.1674	101.213	-13.8145	6.51249	0.0591125	0.00180429	0.0165422	0.000943156	1	11	0.0257301	0.000254218	3.54539e-06	0.0000000E+000	-100.11	0.00959438	0.00235917	0.00988017	13.8145	6.24529e-07
354810	100.311	22.6644	102.84	-12.7316	7.10849	0.0591231	0.0018751	0.0197916	0.000961266	1	11	0.0319541	0.000310717	4.06094e-06	0.0000000E+000	-100.046	0.00948476	0.00214299	0.00972384	12.7316	5.15549e-07
316230	102.062	21.1206	104.225	-11.6917	7.70349	0.0591073	0.00183904	0.0238292	0.000978548	1	11	0.0390156	0.000374341	3.55487e-06	0.0000000E+000	-100.118	0.00939558	0.00194431	0.00959464	11.6917	-5.06068e-07
281835	103.544	19.6077	105.384	-10.7229	8.29948	0.0590799	0.00168312	0.0288004	0.000997017	1	11	0.0469826	0.000445822	4.46796e-06	0.0000000E+000	-100.118	0.00932339	0.00176554	0.00948909	10.7229	9.13095e-07
251188	104.737	18.1787	106.303	-9.84646	8.89449	0.0590775	0.0017372	0.0348544	0.00101928	1	11	0.0558825	0.00052569	5.46815e-06	0.0000000E+000	-100.094	0.00926849	0.00160869	0.00940706	9.84646	1.00019e-06
223872	105.718	16.812	107.046	-9.03596	9.49047	0.0590695	0.00153147	0.0422864	0.00104304	1	11	0.0657583	0.000614299	5.97102e-06	0.0000000E+000	-100.142	0.00922584	0.00146716	0.00934177	9.03596	5.02866e-07
199544	106.53	15.5637	107.661	-8.31197	10.0875	0.0590731	0.00162589	0.051247	0.00107098	1	11	0.0765405	0.000710943	6.3353e-06	0.0000000E+000	-100.062	0.00919088	0.00134277	0.00928845	8.31197	3.64285e-07
177832	107.189	14.4474	108.159	-7.67631	10.6825	0.0590743	0.00156661	0.0619469	0.0011053	1	11	0.0882185	0.00081564	7.04693e-06	0.0000000E+000	-100.134	0.00916282	0.001235	0.00924568	7.67631	7.11625e-07
158486	107.721	13.4441	108.557	-7.11401	11.2785	0.0590864	0.00150194	0.074696	0.00114564	1	11	0.100735	0.000927953	8.33042e-06	0.0000000E+000	-100.078	0.00914087	0.00114083	0.00921179	7.11401	1.2835e-06
141256	108.148	12.5795	108.878	-6.63465	11.8745	0.0591121	0.0017296	0.0895675	0.00119564	1	11	0.114117	0.00104812	7.83273e-06	0.0000000E+000	-100.07	0.00912311	0.00106117	0.00918462	6.63465	-4.97694e-07
125909	108.512	11.8392	109.156	-6.22663	12.3345	0.0590962	0.00156345	0.106768	0.001256	1	11	0.128491	0.00117713	7.43932e-06	0.0000000E+000	-100.11	0.00910717	0.000993638	0.00916121	6.22663	-3.93406e-07
112205	108.798	11.2224	109.375	-5.88916	12.9305	0.0591146	0.001354	0.126393	0.00133062	1	11	0.129121	0.00118053	7.45425e-06	0.0000000E+000	-100.11	0.00909456	0.000938093	0.00914282	5.88916	1.49294e-08
100004	109.037	10.7268	109.563	-5.61853	13.5265	0.0591909	0.00171306	0.148366	0.00142214	1	11	0.129707	0.00118385	6.14904e-06	0.0000000E+000	-100.054	0.0090833	0.000893591	0.00912715	5.61853	-1.30521e-06
89129.3	109.223	10.3481	109.712	-5.4122	14.1215	0.0592295	0.00173703	0.172559	0.00153514	1	11	0.129634	0.00118158	4.97811e-06	0.0000000E+000	-100.062	0.0090741	0.000859706	0.00911474	5.4122	-1.17093e-06
79433.3	109.383	10.0906	109.848	-5.27063	14.7175	0.0592334	0.00151365	0.198564	0.00167554	1	11	0.129576	0.0011796	6.69197e-06	0.0000000E+000	-100.014	0.00906502	0.00083625	0.00910351	5.27063	1.71386e-06
70795	109.51	9.95059	109.961	-5.19191	15.3135	0.059291	0.00186304	0.225927	0.00185007	1	11	0.129559	0.00117822	8.81609e-06	0.0000000E+000	-100.054	0.00905681	0.000822945	0.00909412	5.19191	2.12412e-06
63093.8	109.615	9.92164	110.063	-5.17193	15.9095	0.0592995	0.00178219	0.254244	0.002066	1	11	0.129405	0.00117573	8.30945e-06	0.0000000E+000	-100.11	0.00904868	0.000819025	0.00908567	5.17193	-5.06645e-07
56237	109.71	10.0109	110.166	-5.2137	16.5065	0.059316	0.00187028	0.282701	0.00233439	1	11	0.129372	0.00117434	1.11767e-05	0.0000000E+000	-100.134	0.00903966	0.000824853	0.00907722	5.2137	2.86724e-06
50122.5	109.793	10.2178	110.268	-5.31686	17.1015	0.0593298	0.00180468	0.310764	0.00266839	1	11	0.129287	0.00117248	1.10644e-05	0.0000000E+000	-100.11	0.00902983	0.000840353	0.00906885	5.31686	-1.12261e-07
44666.7	109.868	10.5544	110.374	-5.48721	17.5605	0.0593356	0.00184316	0.337601	0.00308698	1	11	0.140102	0.00126933	1.15642e-05	0.0000000E+000	-100.078	0.00901857	0.000866357	0.00906008	5.48721	4.99797e-07
39814.1	109.932	11.0115	110.482	-5.72005	18.1565	0.0593757	0.00191879	0.363026	0.00360619	1	11	0.13026	0.00117902	1.11606e-05	0.0000000E+000	-100.054	0.0090062	0.000902122	0.00905127	5.72005	-4.03587e-07
35481	110.019	11.6112	110.63	-6.02459	18.6165	0.0593564	0.00180877	0.386321	0.00425556	1	11	0.139519	0.00126114	1.11446e-05	0.0000000E+000	-100.078	0.00898924	0.000948709	0.00903917	6.02459	-1.60279e-08
31621.1	110.094	12.3365	110.783	-6.39355	19.2125	0.0593737	0.00178944	0.407993	0.00505927	1	11	0.130017	0.00117362	1.06639e-05	0.0000000E+000	-100.062	0.00897053	0.00100518	0.00902667	6.39355	-4.80707e-07
28188.1	110.18	13.2112	110.969	-6.83747	19.6725	0.0593761	0.0017848	0.427377	0.00605751	1	11	0.137489	0.00123898	1.10926e-05	0.0000000E+000	-100.134	0.00894743	0.00107285	0.00901152	6.83747	4.28668e-07
25116.9	110.272	14.2459	111.188	-7.3612	20.2685	0.0593872	0.00182048	0.4448	0.00730173	1	11	0.129725	0.00116672	1.07091e-05	0.0000000E+000	-100.054	0.00891964	0.00115232	0.00899377	7.3612	-3.83438e-07
22389	110.385	15.4496	111.461	-7.96739	20.7275	0.0593903	0.00177216	0.460117	0.00884004	1	11	0.135449	0.00121522	1.04842e-05	0.0000000E+000	-100.11	0.00888513	0.00124357	0.00897173	7.96739	-2.24966e-07
19948.8	110.512	16.8425	111.788	-8.66542	21.1875	0.0593923	0.00183888	0.473692	0.0107527	1	11	0.140607	0.00125779	9.72388e-06	0.0000000E+000	-100.03	0.00884335	0.00134776	0.00894547	8.66542	-7.60289e-07
17786.9	110.64	18.4252	112.164	-9.45486	21.7835	0.0594009	0.00184482	0.485632	0.0131047	1	11	0.129745	0.00115675	1.20903e-05	0.0000000E+000	-100.046	0.00879441	0.00146456	0.00891553	9.45486	2.36646e-06
15847.7	110.812	20.2363	112.644	-10.3493	22.2435	0.0593995	0.00182643	0.496275	0.0160165	1	11	0.133248	0.00118291	1.18689e-05	0.0000000E+000	-100.07	0.00873307	0.00159483	0.0088775	10.3493	-2.21394e-07
14121.9	111.008	22.2873	113.223	-11.3525	22.7035	0.0593905	0.00174911	0.505674	0.0195936	1	11	0.136214	0.00120306	1.19724e-05	0.0000000E+000	-100.054	0.00865932	0.00173855	0.00883212	11.3525	1.03452e-07
12590.9	111.237	24.586	113.921	-12.4634	23.1635	0.0594065	0.00178814	0.514131	0.0239464	1	11	0.138678	0.00121731	1.31906e-05	0.0000000E+000	-100.054	0.00857112	0.00189443	0.00877798	12.4634	1.21821e-06
11217.7	111.499	27.1885	114.766	-13.7039	23.6225	0.0593996	0.00177829	0.521831	0.0292871	1	11	0.140707	0.00122604	1.28064e-05	0.0000000E+000	-100.126	0.00846535	0.00206424	0.0087134	13.7039	-3.842e-07
10002.2	111.792	30.0881	115.77	-15.0638	24.2195	0.0594078	0.00182326	0.528846	0.0357211	1	11	0.129415	0.00111786	1.47768e-05	0.0000000E+000	-100.094	0.00834099	0.00224492	0.00863781	15.0638	1.97035e-06
8914.93	112.157	33.3517	117.011	-16.5608	24.7019	0.0594213	0.00185486	0.535283	0.0434881	1	11	0.130585	0.00111601	1.51289e-05	0.0000000E+000	-100.15	0.00819172	0.00243595	0.00854624	16.5608	3.52148e-07
7944	112.57	37.0077	118.497	-18.1984	25.228	0.0594224	0.00192455	0.541364	0.0528026	1	11	0.131489	0.00110964	1.53876e-05	0.0000000E+000	-100.118	0.0080169	0.00263557	0.00843901	18.1984	2.58669e-07
7082.23	113.049	41.0711	120.279	-19.9662	25.8049	0.0594394	0.0019922	0.547159	0.0637982	1	11	0.132159	0.00109877	1.64078e-05	0.0000000E+000	-100.078	0.0078143	0.00283896	0.00831402	19.9662	1.02019e-06
6307.73	113.603	45.6374	122.428	-21.8866	26.4395	0.0594457	0.00184482	0.552874	0.0768261	1	11	0.132646	0.00108346	1.58517e-05	0.0000000E+000	-100.062	0.00757937	0.00304482	0.00816809	21.8866	-5.5602e-07
5621.06	114.253	50.7083	125	-23.9329	27.1403	0.0594508	0.00186266	0.558371	0.0918884	1	11	0.132966	0.00106373	1.6823e-05	0.0000000E+000	-100.038	0.00731216	0.00324533	0.00799999	23.9329	9.71296e-07
5011.6	114.996	56.321	128.047	-26.094	27.9007	0.0594584	0.00192529	0.563863	0.109087	1	11	0.133148	0.00103984	1.73323e-05	0.0000000E+000	-100.046	0.00701361	0.00343502	0.00780961	26.094	5.09298e-07
4466.43	115.867	62.5669	131.68	-28.3686	28.6607	0.0594376	0.00171752	0.569528	0.128577	1	11	0.133216	0.00101166	1.83638e-05	0.0000000E+000	-100.062	0.00668216	0.0036083	0.00759415	28.3686	1.03144e-06
3981.27	116.865	69.5052	135.972	-30.7419	29.4207	0.0594435	0.00179334	0.575149	0.150285	1	11	0.133192	0.000979552	1.80437e-05	0.0000000E+000	-100.046	0.00632098	0.00375938	0.00735444	30.7419	-3.20105e-07
3546.6	118.039	77.2468	141.069	-33.2014	30.1809	0.0594549	0.00183311	0.580936	0.174192	1	11	0.133099	0.000943503	1.82765e-05	0.0000000E+000	-100.126	0.00593152	0.00388168	0.00708875	33.2014	2.32805e-07
3161.01	119.405	85.7854	147.026	-35.695	30.9407	0.0594641	0.0019212	0.586922	0.199811	1	11	0.132954	0.000904291	1.80379e-05	0.0000000E+000	-100.046	0.00552374	0.00396848	0.00680151	35.695	-2.38532e-07
2817.3	120.967	95.2315	153.955	-38.2116	31.7009	0.0594525	0.00186192	0.593208	0.226977	1	11	0.132772	0.000862406	1.77139e-05	0.0000000E+000	-100.078	0.00510365	0.00401785	0.00649541	38.2116	-3.24044e-07
2510.8	122.772	105.703	162.007	-40.7275	32.4607	0.0594644	0.00202063	0.599679	0.255288	1	11	0.132565	0.000818271	1.81003e-05	0.0000000E+000	-100.054	0.00467771	0.00402738	0.00617259	40.7275	3.86441e-07
2237.85	124.836	117.268	171.277	-43.2096	33.2209	0.0594457	0.00185337	0.606469	0.284296	1	11	0.132345	0.000772695	1.90527e-05	0.0000000E+000	-100.094	0.0042554	0.00399744	0.00583849	43.2096	9.5239e-07
1995.64	127.178	129.97	181.842	-45.6221	33.9807	0.0594505	0.0018463	0.613612	0.313468	1	11	0.13213	0.000726621	1.88357e-05	0.0000000E+000	-100.062	0.00384613	0.00393056	0.00549927	45.6221	-2.16996e-07
1778.29	129.878	144.103	193.994	-47.9721	34.7409	0.0594491	0.00183032	0.621076	0.342698	1	11	0.131913	0.000679987	1.9723e-05	0.0000000E+000	-100.11	0.00345109	0.00382908	0.00515479	47.9721	8.873e-07
1585.51	132.91	159.625	207.714	-50.2179	35.5007	0.0594492	0.00184741	0.628855	0.371381	1	11	0.131718	0.000634129	2.04156e-05	0.0000000E+000	-100.078	0.00308053	0.00369971	0.0048143	50.2179	6.92599e-07
1411.84	136.383	176.922	223.387	-52.3727	36.2622	0.0594599	0.00186042	0.637167	0.39967	1	11	0.131528	0.000588791	2.11535e-05	0.0000000E+000	-100.07	0.00273303	0.00354541	0.00447654	52.3727	7.37859e-07
1258.79	140.242	195.81	240.851	-54.3892	37.0219	0.0594561	0.00187343	0.645702	0.42678	1	11	0.131365	0.000545419	2.18561e-05	0.0000000E+000	-100.094	0.00241758	0.0033755	0.00415195	54.3892	7.02652e-07
1121.79	144.603	216.727	260.539	-56.2884	37.7804	0.0594629	0.00199646	0.654626	0.452975	1	11	0.131214	0.000503626	2.21302e-05	0.0000000E+000	-100.11	0.00213025	0.00319277	0.0038382	56.2884	2.74053e-07
1000.32	149.514	239.619	282.438	-58.0372	38.5397	0.0594656	0.00201486	0.663989	0.477919	1	11	0.131084	0.000464117	2.29411e-05	0.0000000E+000	-100.062	0.00187428	0.00300381	0.0035406	58.0372	8.10949e-07
891.427	154.952	265.045	307.016	-59.6884	39.2984	0.0594607	0.00196096	0.673619	0.502032	1	11	0.13097	0.000426591	2.36803e-05	0.0000000E+000	-100.07	0.00164389	0.00281188	0.00325715	59.6884	7.39149e-07
794.238	161.064	293.124	334.46	-61.2123	40.3089	0.0594438	0.000150887	0.683625	0.525089	1	12	0.13538	0.000404771	2.3447e-05	0.0000000E+000	-100.03	0.00143983	0.00262037	0.00298989	61.2123	-2.33266e-07
707.509	167.891	324.131	365.032	-62.6171	41.0715	0.0594527	0.000192586	0.694012	0.5472	1	12	0.134502	0.000368467	2.32008e-05	0.0000000E+000	-100.078	0.00125999	0.00243253	0.00273948	62.6171	-2.46226e-07
631.01	175.467	357.92	398.617	-63.884	41.8294	0.0594539	0.000174514	0.704689	0.568144	1	12	0.133782	0.000335615	2.30173e-05	0.0000000E+000	-100.03	0.00110429	0.00225255	0.00250867	63.884	-1.83487e-07
562.339	183.884	395.429	436.093	-65.0605	42.5859	0.0594538	0.000174514	0.715737	0.58848	1	12	0.133169	0.000305368	2.28389e-05	0.0000000E+000	-100.046	0.000966908	0.00207927	0.00229309	65.0605	-1.78464e-07
501.444	193.247	436.567	477.426	-66.1234	43.3432	0.0594547	0.000194561	0.72702	0.607907	1	12	0.13267	0.000277886	2.28942e-05	0.0000000E+000	-100.134	0.000847814	0.00191531	0.00209457	66.1234	5.53538e-08
446.859	203.669	482.118	523.373	-67.0985	44.0999	0.0594614	0.000188926	0.738748	0.626875	1	12	0.132254	0.000252695	2.28375e-05	0.0000000E+000	-100.118	0.000743538	0.00176007	0.00191068	67.0985	-5.66629e-08
398.089	215.281	532.591	574.456	-67.9908	44.8627	0.0594632	0.000176991	0.750664	0.645239	1	12	0.131914	0.000229633	2.29857e-05	0.0000000E+000	-100.078	0.000652367	0.00161392	0.00174078	67.9908	1.48153e-07
354.66	228.272	588.087	630.836	-68.7858	45.6229	0.0594558	0.00015698	0.763075	0.663158	1	12	0.131632	0.000208663	2.28986e-05	0.0000000E+000	-100.086	0.000573613	0.00147778	0.0015852	68.7858	-8.70563e-08
316.316	242.424	648.851	692.659	-69.5133	46.3799	0.0594551	0.000175163	0.775451	0.680463	1	12	0.131408	0.000189715	2.31068e-05	0.0000000E+000	-100.094	0.000505285	0.0013524	0.00144371	69.5133	2.08158e-07
281.894	258.327	716.135	761.304	-70.1644	47.1354	0.059454	0.000183144	0.788386	0.697611	1	12	0.131222	0.000172365	2.29898e-05	0.0000000E+000	-100.054	0.000445713	0.0012356	0.00131354	70.1644	-1.17011e-07
251.044	276.092	790.907	837.712	-70.7568	47.8919	0.0594558	0.00017311	0.801575	0.714506	1	12	0.131064	0.000156454	2.30155e-05	0.0000000E+000	-100.062	0.000393428	0.00112703	0.00119373	70.7568	2.56793e-08
223.925	295.5	872.05	920.756	-71.2807	48.6547	0.0594599	0.000167963	0.815034	0.731088	1	12	0.130937	0.000142206	2.30632e-05	0.0000000E+000	-100.094	0.000348553	0.00102861	0.00108606	71.2807	4.77781e-08
199.553	317.298	962.321	1013.28	-71.7515	49.4162	0.0594593	0.000177716	0.828785	0.747518	1	12	0.130841	0.000129126	2.32756e-05	0.0000000E+000	-100.11	0.000309034	0.000937259	0.000986892	71.7515	2.12359e-07
177.781	341.552	1061.93	1115.5	-72.1704	50.1842	0.0594589	0.000172064	0.843024	0.76399	1	12	0.130756	0.000117217	2.34101e-05	0.0000000E+000	-100.078	0.000274484	0.000853402	0.000896457	72.1704	1.34463e-07
158.428	368.525	1171.39	1227.99	-72.5361	50.9507	0.0594541	0.000164511	0.857603	0.780365	1	12	0.13069	0.000106426	2.33868e-05	0.0000000E+000	-100.094	0.000244387	0.000776803	0.000814339	72.5361	-2.32542e-08
141.311	398.292	1290.86	1350.91	-72.8525	51.7039	0.0594567	0.000174992	0.872498	0.796655	1	12	0.130636	9.6702e-05	2.34599e-05	0.0000000E+000	-100.094	0.000218248	0.000707338	0.000740243	72.8525	7.30994e-08
125.846	431.808	1424.2	1488.22	-73.133	52.4594	0.0594608	0.000171206	0.887996	0.813238	1	12	0.130594	8.77516e-05	2.34755e-05	0.0000000E+000	-100.07	0.000194965	0.000643037	0.000671943	73.133	1.55676e-08
112.19	468.409	1570.25	1638.62	-73.39	53.2049	0.0594543	0.000153694	0.903438	0.829615	1	12	0.130556	7.96741e-05	2.35076e-05	0.0000000E+000	-100.094	0.000174449	0.000584804	0.000610269	73.39	3.20918e-08
100.032	509.507	1730.03	1803.5	-73.5899	53.9647	0.0594522	0.000167551	0.919658	0.846259	1	12	0.130524	7.23728e-05	2.35892e-05	0.0000000E+000	-100.086	0.000156645	0.00053189	0.000554477	73.5899	8.16708e-08
89.116	555.111	1907.31	1986.45	-73.7727	54.7317	0.059461	0.000160762	0.936361	0.863239	1	12	0.130501	6.56958e-05	2.36633e-05	0.0000000E+000	-100.07	0.000140678	0.000483355	0.000503411	73.7727	7.40524e-08
79.4155	605.055	2101.76	2187.12	-73.94	55.4962	0.059458	0.00018094	0.953522	0.880547	1	12	0.130481	5.96587e-05	2.36608e-05	0.0000000E+000	-100.022	0.000126488	0.000439378	0.000457222	73.94	-2.44729e-09
70.8387	659.679	2313.78	2405.99	-74.0867	56.2474	0.059462	0.000172604	0.971016	0.898019	1	12	0.130469	5.42267e-05	2.37015e-05	0.0000000E+000	-100.078	0.000113958	0.000399702	0.00041563	74.0867	4.06912e-08
63.0823	722.009	2552.24	2652.4	-74.2042	57.2848	0.0594626	1.56005e-05	0.988531	0.915283	1	13	0.130933	4.93639e-05	2.37476e-05	0.0000000E+000	-100.094	0.000102627	0.00036278	0.000377017	74.2042	4.6052e-08
56.2418	789.175	2810.3	2919	-74.3145	58.0283	0.0594624	7.70078e-06	1.00695	0.933349	1	13	0.130836	4.48223e-05	2.37728e-05	0.0000000E+000	-100.062	9.26198e-05	0.000329825	0.000342583	74.3145	2.5179e-08
50.1444	863.41	3093.78	3212.01	-74.4067	58.7852	0.0594602	1.63704e-05	1.02591	0.951777	1	13	0.130751	4.0707e-05	2.3788e-05	0.0000000E+000	-100.038	8.36883e-05	0.000299873	0.000311332	74.4067	1.52109e-08
44.6712	946.065	3408.63	3537.49	-74.488	59.5492	0.05946	1.36501e-05	1.04523	0.970471	1	13	0.130687	3.69434e-05	2.38025e-05	0.0000000E+000	-100.054	7.56017e-05	0.00027239	0.000282687	74.488	1.45338e-08
39.8089	1036.44	3753.58	3894.05	-74.5641	60.3117	0.059459	1.91856e-05	1.06511	0.989654	1	13	0.130632	3.35466e-05	2.37603e-05	0.0000000E+000	-100.094	6.83506e-05	0.000247539	0.000256802	74.5641	-4.22163e-08
35.4653	1137.28	4133.42	4287.02	-74.6162	61.0621	0.0594677	1.31205e-05	1.08569	1.00929	1	13	0.130591	3.04619e-05	2.38239e-05	0.0000000E+000	-100.078	6.18807e-05	0.000224904	0.000233262	74.6162	6.36201e-08
31.6296	1246.03	4548.24	4715.83	-74.6792	61.7864	0.0594639	9.37099e-06	1.10633	1.02909	1	13	0.13055	2.76834e-05	2.38527e-05	0.0000000E+000	-99.9896	5.6029e-05	0.000204516	0.000212052	74.6792	2.88046e-08
28.1701	1367.88	5009.89	5193.27	-74.7284	62.5917	0.0594748	1.17014e-05	1.12773	1.04949	1	13	0.130525	2.51334e-05	2.3818e-05	0.0000000E+000	-100.07	5.07186e-05	0.000185757	0.000192557	74.7284	-3.46753e-08
25.1044	1500.78	5515.1	5715.65	-74.7772	63.3479	0.0594644	1.05584e-05	1.14952	1.07027	1	13	0.130499	2.28318e-05	2.38034e-05	0.0000000E+000	-100.086	4.59394e-05	0.000168819	0.000174958	74.7772	-1.46184e-08
22.3854	1646.03	6068.5	6287.78	-74.8241	64.0344	0.0594619	9.80139e-06	1.17159	1.0913	1	13	0.130483	2.07519e-05	2.38317e-05	0.0000000E+000	-100.094	4.16336e-05	0.000153493	0.000159039	74.8241	2.82269e-08
19.9553	1806.86	6679.97	6920.03	-74.8643	64.7962	0.0594677	1.18504e-05	1.19395	1.11255	1	13	0.130468	1.88537e-05	2.38032e-05	0.0000000E+000	-100.062	3.77319e-05	0.000139495	0.000144508	74.8643	-2.84733e-08
17.7961	1981.26	7348.5	7610.9	-74.911	65.6405	0.0594673	1.49426e-05	1.21701	1.13454	1	13	0.130451	1.71401e-05	2.38115e-05	0.0000000E+000	-100.054	3.42034e-05	0.00012686	0.00013139	74.911	8.28001e-09
15.8576	2174.17	8089.13	8376.22	-74.9557	66.3619	0.0594662	1.3767e-05	1.24074	1.15715	1	13	0.130443	1.5573e-05	2.38532e-05	0.0000000E+000	-100.094	3.09883e-05	0.000115294	0.000119386	74.9557	4.17098e-08
14.119	2387.78	8912.59	9226.91	-75.002	67.1642	0.0594635	1.15278e-05	1.26477	1.18007	1	13	0.130436	1.41365e-05	2.38685e-05	0.0000000E+000	-100.03	2.80468e-05	0.000104687	0.000108379	75.002	1.52969e-08
12.6008	2621.16	9801.26	10145.7	-75.0277	68.0549	0.0594684	1.1895e-05	1.28866	1.20265	1	13	0.130431	1.28558e-05	2.38243e-05	0.0000000E+000	-100.062	2.54642e-05	9.52177e-05	9.85639e-05	75.0277	-4.41603e-08
11.2249	2876.76	10794.2	11171	-75.077	68.7389	0.0594629	9.82911e-06	1.31356	1.22645	1	13	0.130423	1.16752e-05	2.39011e-05	0.0000000E+000	-100.11	2.30527e-05	8.64985e-05	8.95177e-05	75.077	7.68221e-08
10.0032	3145.39	11881.8	12291.1	-75.1726	69.4997	0.0594612	1.23387e-05	1.33905	1.25136	1	13	0.130419	1.06108e-05	2.38333e-05	0.0000000E+000	-100.046	2.08205e-05	7.86504e-05	8.13596e-05	75.1726	-6.78746e-08
8.91838	3470.5	13077.5	13530.2	-75.1375	70.3441	0.0594711	1.77912e-05	1.36461	1.27483	1	13	0.130417	9.63894e-06	2.38817e-05	0.0000000E+000	-100.086	1.89576e-05	7.14361e-05	7.39087e-05	75.1375	4.84451e-08
7.93953	3805.8	14412.2	14906.2	-75.2077	71.2827	0.0594734	1.48631e-05	1.3909	1.30023	1	13	0.130412	8.74886e-06	2.3836e-05	0.0000000E+000	-100.102	1.71282e-05	6.48627e-05	6.70861e-05	75.2077	-4.56994e-08
7.07654	4176.6	15862	16402.6	-75.2484	71.841	0.0594637	9.61091e-06	1.41789	1.32596	1	13	0.13041	7.95053e-06	2.38289e-05	0.0000000E+000	-100.062	1.55237e-05	5.89564e-05	6.09659e-05	75.2484	-7.10022e-09
6.31058	4568.46	17532.3	18117.7	-75.395	72.4612	0.0594529	1.8935e-05	1.43851	1.34704	1	13	0.130416	7.19824e-06	2.38124e-05	0.0000000E+000	-100.118	1.39175e-05	5.3411e-05	5.51945e-05	75.395	-1.64813e-08
5.6205	5072.72	19284.8	19940.8	-75.2626	73.1477	0.0594747	1.64254e-05	1.46835	1.37333	1	13	0.130411	6.5399e-06	2.38278e-05	0.0000000E+000	-100.078	1.27572e-05	4.84987e-05	5.01485e-05	75.2626	1.53732e-08
5.01444	5589.49	21197.8	21922.3	-75.2283	73.9052	0.0594546	3.72531e-05	1.49729	1.39996	1	13	0.130397	5.94814e-06	2.38935e-05	0.0000000E+000	-100.03	1.16305e-05	4.41079e-05	4.56156e-05	75.2283	6.57505e-08
4.46939	6069.21	23383	24157.8	-75.4496	74.7465	0.0594798	1.35607e-05	1.5229	1.42678	1	13	0.130404	5.39801e-06	2.39304e-05	0.0000000E+000	-100.054	1.03996e-05	4.00668e-05	4.13944e-05	75.4496	3.68706e-08
3.97785	6703.87	25918.2	26771.2	-75.498	75.9842	0.0594795	-2.40896e-05	1.54371	1.44691	1	14	0.130439	4.87238e-06	2.3896e-05	0.0000000E+000	-100.062	9.35386e-06	3.61635e-05	3.73536e-05	75.498	-3.44212e-08
3.55114	7356.18	28304.9	29245.2	-75.4316	77.0254	0.059474	-7.34218e-06	1.5834	1.48322	1	14	0.130427	4.45979e-06	2.3806e-05	0.0000000E+000	-100.094	8.60091e-06	3.30943e-05	3.41937e-05	75.4316	-9.00294e-08
3.1604	8151.13	31305.4	32349.2	-75.4057	78.1872	0.0594831	5.44914e-06	1.60864	1.50651	1	14	0.130425	4.0318e-06	2.38535e-05	0.0000000E+000	-100.038	7.78917e-06	2.99153e-05	3.09127e-05	75.4057	4.75217e-08
2.81836	8840.45	34464.6	35580.4	-75.6134	79.4827	0.0594798	-3.85593e-06	1.63851	1.53736	1	14	0.130416	3.6654e-06	2.39008e-05	0.0000000E+000	-100.054	6.98316e-06	2.7224e-05	2.81054e-05	75.6134	4.73563e-08
2.51367	9771.5	37871.3	39111.6	-75.5322	80.9267	0.0594793	-2.77301e-06	1.67186	1.56751	1	14	0.130416	3.33446e-06	2.37963e-05	0.0000000E+000	-100.078	6.38778e-06	2.4757e-05	2.55679e-05	75.5322	-1.04521e-07
2.23982	10782.5	41769.5	43138.8	-75.5254	82.5414	0.0594759	5.26054e-06	1.70117	1.59489	1	14	0.130415	3.02314e-06	2.38871e-05	0.0000000E+000	-100.062	5.7941e-06	2.24452e-05	2.3181e-05	75.5254	9.08137e-08
1.99706	11870.2	46099.1	47602.8	-75.5604	84.3447	0.0594827	-5.54813e-06	1.72877	1.62127	1	14	0.130413	2.7396e-06	2.38555e-05	0.0000000E+000	-100.062	5.23831e-06	2.03436e-05	2.10072e-05	75.5604	-3.16624e-08
1.77961	13029.3	50742.2	52388.2	-75.599	86.3628	0.0594902	3.64979e-06	1.76249	1.65347	1	14	0.130407	2.48924e-06	2.38117e-05	0.0000000E+000	-100.046	4.74737e-06	1.84885e-05	1.90882e-05	75.599	-4.38046e-08
1.58469	14354.2	55932	57744.5	-75.6064	88.622	0.0594801	-4.52907e-08	1.79563	1.68467	1	14	0.130409	2.25838e-06	2.391e-05	0.0000000E+000	-100.118	4.30485e-06	1.67741e-05	1.73177e-05	75.6064	9.83316e-08
1.41224	15904.5	61584.6	63605.2	-75.5195	91.1502	0.0594847	6.59257e-07	1.82995	1.71553	1	14	0.130407	2.05025e-06	2.37875e-05	0.0000000E+000	-100.07	3.9313e-06	1.52226e-05	1.5722e-05	75.5195	-1.2246e-07
1.25967	17574.6	67815.6	70055.9	-75.4712	93.9789	0.059488	1.82984e-06	1.86308	1.74583	1	14	0.130406	1.86146e-06	2.39108e-05	0.0000000E+000	-100.086	3.58094e-06	1.38178e-05	1.42743e-05	75.4712	1.23285e-07
1.12249	19396.3	74737.9	77213.8	-75.4513	97.147	0.0594852	5.77956e-07	1.89714	1.77742	1	14	0.130405	1.68889e-06	2.3807e-05	0.0000000E+000	-100.086	3.25334e-06	1.25358e-05	1.29511e-05	75.4513	-1.03821e-07
1.00006	21484	82395.1	85149.9	-75.3859	100.696	0.0594867	2.00552e-06	1.93148	1.80853	1	14	0.130403	1.53145e-06	2.38822e-05	0.0000000E+000	-100.054	2.9631e-06	1.1364e-05	1.1744e-05	75.3859	7.52037e-08