File: data/DE_40_2_60.mpt
EC-Lab ASCII FILE
Nb header lines : 75

Potentio Electrochemical Impedance Spectroscopy

Run on channel : 2 (SN 20919)
User :
CE vs. WE compliance from -10 V to 10 V
Electrode connection : standard
Ewe ctrl range : min = -10.00 V, max = 10.00 V
Safety Limits :
	Do not start on E overload
Acquisition started on : 01/24/2020 09:45:23
Technique started on : 01/24/2020 09:45:24
Saved on :
	File : DE_40_2_60.mpr
	Directory : P:\Chemistry\Data\VMP3\Kyler\DOE\DE_40\2ND 60C\
	Host : 10.0.4.99
Device : VMP3 (SN 0183)
Address : USB
EC-Lab for windows v11.33 (software)
Internet server v11.32 (firmware)
Command interpretor v11.33 (firmware)
Electrode material :
Initial state :
Electrolyte :
Comments :
Electrode surface area : 0.001 cm²
Characteristic mass : 0.001 g
Equivalent Weight : 0.000 g/eq.
Density : 0.000 g/cm3
Record Analogic IN 1
Cycle Definition : Charge/Discharge alternance
External device configuration :
   device type : Thermostat
   device name : Other
   Analog OUT :
      mode : E/V
      unit : T/°C
      max : 400.000 at 5.000 V
      min : -100.000 at 0.000 V
      current : 0.000
   Analog IN 1 :
      unit : T/°C
      max : 400.000 at 5.000 V
      min : -100.000 at 0.000 V
Mode                Single sine
E (V)               0.0000
vs.                 Eoc
tE (h:m:s)          0:00:0.0000
record              0
dI                  1.000
unit dI             mA
dt (s)              0.000
fi                  1.000
unit fi             MHz
ff                  1.000
unit ff             Hz
Nd                  20
Points              per decade
spacing             Logarithmic
Va (mV)             128.0
pw                  0.50
Na                  3
corr                0
E range min (V)     -10.000
E range max (V)     10.000
I Range             Auto
Bandwidth           5
nc cycles           0
goto Ns'            0
nr cycles           0
inc. cycle          1

freq/Hz	Re(Z)/Ohm	-Im(Z)/Ohm	|Z|/Ohm	Phase(Z)/deg	time/s	<Ewe>/V	<I>/mA	Cs/µF	Cp/µF	cycle number	I Range	|Ewe|/V	|I|/A	(Q-Qo)/mA.h	Analog OUT/V	Analog IN 1/V	Re(Y)/Ohm-1	Im(Y)/Ohm-1	|Y|/Ohm-1	Phase(Y)/deg	dq/mA.h
1.00002e+06	54.5121	12.4676	55.9197	-12.8827	1.64448	-0.0350804	0.00142627	0.0127653	0.00063455	1	11	0.000934828	1.67173e-05	3.4471e-07	0.0000000E+000	-100.11	0.0174327	0.00398707	0.0178828	12.8827	3.4471e-07
891247	54.7811	9.94864	55.6772	-10.2931	2.24049	-0.0346458	0.0016662	0.0179498	0.000573101	1	11	0.00158207	2.84151e-05	7.13182e-07	0.0000000E+000	-100.118	0.0176716	0.00320929	0.0179607	10.2931	3.68472e-07
794333	55.9018	8.06794	56.481	-8.21241	2.83647	-0.0343029	0.00155618	0.0248345	0.000506729	1	11	0.00254886	4.51277e-05	1.0854e-06	0.0000000E+000	-100.094	0.0175235	0.00252905	0.0177051	8.21241	3.72216e-07
707950	57.1932	6.86312	57.6035	-6.84271	3.43249	-0.0340209	0.00148574	0.0327564	0.000464988	1	11	0.00391946	6.8042e-05	1.27749e-06	0.0000000E+000	-100.07	0.0172364	0.00206835	0.0173601	6.84271	1.92092e-07
630957	58.3799	6.02762	58.6903	-5.8948	4.02849	-0.033781	0.00142181	0.041848	0.000441402	1	11	0.00573859	9.77775e-05	1.44431e-06	0.0000000E+000	-100.11	0.0169485	0.0017499	0.0170386	5.8948	1.66819e-07
562342	59.3747	5.41866	59.6215	-5.21449	4.62449	-0.0335713	0.00150321	0.0522309	0.000431426	1	11	0.00802595	0.000134615	1.87954e-06	0.0000000E+000	-100.078	0.0167031	0.00152436	0.0167725	5.21449	4.35227e-07
501206	60.1839	4.94558	60.3868	-4.69769	5.22149	-0.0334031	0.00159967	0.0642076	0.000430663	1	11	0.0108089	0.000178994	1.70417e-06	0.0000000E+000	-100.078	0.0165043	0.00135623	0.0165599	4.69769	-1.75363e-07
446686	60.8285	4.55649	60.9989	-4.28386	5.81649	-0.0333008	0.00143798	0.0781965	0.000436319	1	11	0.0141167	0.000231425	1.94099e-06	0.0000000E+000	-100.086	0.0163479	0.00122458	0.0163937	4.28386	2.36813e-07
398103	61.3011	4.19597	61.4445	-3.91571	6.41247	-0.0332559	0.00138781	0.0952777	0.000444315	1	11	0.0179637	0.000292356	2.05526e-06	0.0000000E+000	-100.07	0.0162369	0.00111139	0.0162749	3.91571	1.14271e-07
354810	61.659	3.87247	61.7805	-3.59372	7.00748	-0.0332515	0.0012382	0.115834	0.000455103	1	11	0.0223929	0.000362459	2.77204e-06	0.0000000E+000	-100.142	0.0161545	0.00101458	0.0161863	3.59372	7.16782e-07
316230	61.9221	3.60539	62.0269	-3.33226	7.60248	-0.0332506	0.00146698	0.139593	0.000471638	1	11	0.0274406	0.000442399	3.65913e-06	0.0000000E+000	-100.094	0.0160948	0.000937112	0.016122	3.33226	8.87086e-07
281835	62.0841	3.35185	62.1745	-3.09034	8.19749	-0.0332659	0.00155452	0.168477	0.000489651	1	11	0.0331893	0.000533809	3.08956e-06	0.0000000E+000	-100.094	0.0160604	0.000867082	0.0160838	3.09034	-5.69571e-07
251188	62.2001	3.14481	62.2795	-2.89439	8.79249	-0.0332709	0.00155787	0.201478	0.000513719	1	11	0.039674	0.000637031	3.28349e-06	0.0000000E+000	-100.102	0.0160362	0.000810782	0.0160566	2.89439	1.93935e-07
223872	62.27	2.96643	62.3406	-2.72741	9.38949	-0.0332655	0.00161734	0.239655	0.000542642	1	11	0.046949	0.000753104	3.87679e-06	0.0000000E+000	-100.102	0.0160227	0.000763295	0.0160409	2.72741	5.933e-07
199544	62.322	2.82247	62.3858	-2.59307	9.98648	-0.0332762	0.00150435	0.282588	0.000578415	1	11	0.0549562	0.000880908	2.89419e-06	0.0000000E+000	-100.094	0.0160129	0.000725199	0.0160293	2.59307	-9.82602e-07
177832	62.3538	2.72455	62.4133	-2.50195	10.5825	-0.0332787	0.00135567	0.328485	0.000625967	1	11	0.0636736	0.00102019	2.88081e-06	0.0000000E+000	-100.078	0.0160069	0.000699424	0.0160222	2.50195	-1.33819e-08
158486	62.3668	2.66247	62.4236	-2.4445	11.1785	-0.0332592	0.00138894	0.377175	0.000686146	1	11	0.0730501	0.00117023	8.97918e-07	0.0000000E+000	-100.078	0.016005	0.000683262	0.0160196	2.4445	-1.98289e-06
141256	62.3713	2.63139	62.4268	-2.41582	11.7745	-0.0332489	0.00149972	0.428182	0.000760775	1	11	0.0830673	0.00133064	2.27855e-08	0.0000000E+000	-100.11	0.0160045	0.000675216	0.0160188	2.41582	-8.75132e-07
125909	62.3718	2.63768	62.4276	-2.42157	12.3715	-0.0332542	0.00144862	0.479226	0.000855522	1	11	0.0938761	0.00150376	5.76453e-07	0.0000000E+000	-100.142	0.0160043	0.000676813	0.0160186	2.42157	5.53667e-07
112205	62.3715	2.67496	62.4289	-2.45577	12.9675	-0.0332151	0.00189335	0.530262	0.000973544	1	11	0.105572	0.00169108	-5.97772e-07	0.0000000E+000	-100.102	0.0160035	0.000686353	0.0160182	2.45577	-1.17422e-06
100004	62.3805	2.74637	62.441	-2.52088	13.4275	-0.0332351	0.00162072	0.579489	0.00112105	1	11	0.118305	0.00189467	-1.70615e-06	0.0000000E+000	-100.134	0.0159996	0.000704401	0.0160151	2.52088	-1.10838e-06
89129.3	62.3845	2.84675	62.4494	-2.61273	13.8865	-0.0332418	0.00130626	0.627264	0.00130344	1	11	0.132158	0.00211625	-1.84925e-06	0.0000000E+000	-100.11	0.0159963	0.000729948	0.016013	2.61273	-1.43092e-07
79433.3	62.3799	2.97757	62.4509	-2.73281	14.4825	-0.0331678	0.00178166	0.672908	0.00152968	1	11	0.129714	0.00207706	-4.90091e-06	0.0000000E+000	-100.062	0.0159944	0.000763456	0.0160126	2.73281	-3.05167e-06
70795	62.3767	3.15295	62.4564	-2.89366	15.0775	-0.0331483	0.00151739	0.713019	0.00181711	1	11	0.129631	0.00207554	-6.24922e-06	0.0000000E+000	-100.054	0.0159908	0.000808283	0.0160112	2.89366	-1.34831e-06
63093.8	62.3749	3.35839	62.4653	-3.08195	15.6735	-0.0331171	0.00159879	0.751107	0.00217114	1	11	0.129584	0.0020745	-7.71092e-06	0.0000000E+000	-100.134	0.0159857	0.000860705	0.0160089	3.08195	-1.4617e-06
56237	62.369	3.60258	62.4729	-3.30587	16.2705	-0.0330979	0.00164097	0.785569	0.00261233	1	11	0.129485	0.00207266	-2.53368e-06	0.0000000E+000	-100.126	0.0159803	0.000923059	0.0160069	3.30587	5.17724e-06
50122.5	62.3708	3.89062	62.492	-3.56942	16.8675	-0.0330763	0.0015947	0.816148	0.00316342	1	11	0.129532	0.00207277	-2.35356e-06	0.0000000E+000	-100.07	0.015971	0.000996252	0.016002	3.56942	1.80127e-07
44666.7	62.3731	4.22584	62.5161	-3.87592	17.4625	-0.0330658	0.00153188	0.843185	0.0038527	1	11	0.12942	0.00207018	-3.17325e-06	0.0000000E+000	-100.054	0.0159593	0.00108126	0.0159959	3.87592	-8.1969e-07
39814.1	62.3775	4.61218	62.5478	-4.22874	18.0575	-0.0330438	0.00150586	0.866718	0.00471266	1	11	0.12935	0.00206802	-3.69026e-06	0.0000000E+000	-100.054	0.0159443	0.00117891	0.0159878	4.22874	-5.17012e-07
35481	62.3844	5.05713	62.589	-4.6345	18.6545	-0.033044	0.0013557	0.886992	0.00579072	1	11	0.129284	0.00206561	-7.14019e-07	0.0000000E+000	-100.046	0.015925	0.00129095	0.0159772	4.6345	2.97624e-06
31621.1	62.4047	5.5587	62.6518	-5.09019	19.1145	-0.0330313	0.00152779	0.90546	0.00712769	1	11	0.140257	0.00223868	1.33286e-06	0.0000000E+000	-100.062	0.0158983	0.00141614	0.0159612	5.09019	2.04688e-06
28188.1	62.4253	6.12866	62.7254	-5.60709	19.7105	-0.0330094	0.00158373	0.921275	0.00879493	1	11	0.130287	0.0020771	2.98954e-07	0.0000000E+000	-100.102	0.0158662	0.00155768	0.0159425	5.60709	-1.03391e-06
25116.9	62.4562	6.76896	62.822	-6.18554	20.1705	-0.0330007	0.00157017	0.93612	0.0108681	1	11	0.13979	0.00222518	7.97937e-07	0.0000000E+000	-100.07	0.0158253	0.00171514	0.015918	6.18554	4.98983e-07
22389	62.4896	7.49125	62.937	-6.83599	20.7655	-0.0329796	0.00171066	0.948922	0.0134439	1	11	0.130173	0.00206831	-2.33934e-06	0.0000000E+000	-100.062	0.0157759	0.00189122	0.0158889	6.83599	-3.13728e-06
19948.8	62.5408	8.30515	63.0898	-7.56438	21.2255	-0.0329862	0.00158485	0.96063	0.0166469	1	11	0.137917	0.00218604	-3.40263e-06	0.0000000E+000	-100.07	0.0157125	0.00208655	0.0158504	7.56438	-1.06329e-06
17786.9	62.5928	9.20853	63.2666	-8.3692	21.8215	-0.0329734	0.00162555	0.971695	0.0205855	1	11	0.129699	0.00205005	-3.29543e-06	0.0000000E+000	-100.078	0.0156378	0.0023006	0.0158061	8.3692	1.07191e-07
15847.7	62.6681	10.2366	63.4987	-9.27712	22.2815	-0.0329731	0.00160065	0.981067	0.0254965	1	11	0.135625	0.00213587	-3.47424e-06	0.0000000E+000	-100.038	0.0155424	0.00253879	0.0157484	9.27712	-1.78802e-07
14121.9	62.7497	11.3775	63.7728	-10.2769	22.8765	-0.0329614	0.00172497	0.990562	0.0315284	1	11	0.129221	0.00202627	-2.16922e-06	0.0000000E+000	-100.086	0.0154291	0.00279753	0.0156807	10.2769	1.30502e-06
12590.9	62.8565	12.6496	64.1167	-11.3786	23.3355	-0.0329655	0.00164321	0.999275	0.0388954	1	11	0.133464	0.00208159	-2.80952e-07	0.0000000E+000	-100.11	0.01529	0.00307706	0.0155966	11.3786	1.88827e-06
11217.7	62.9844	14.0744	64.5377	-12.5963	23.7955	-0.0329631	0.00164172	1.00806	0.0479421	1	11	0.137124	0.00212472	1.33639e-06	0.0000000E+000	-100.11	0.0151219	0.0033791	0.0154948	12.5963	1.61734e-06
10002.2	63.1381	15.655	65.05	-13.9255	24.2555	-0.0329657	0.00157704	1.01641	0.0588683	1	11	0.140185	0.00215504	8.69698e-07	0.0000000E+000	-100.054	0.014921	0.00369963	0.0153728	13.9255	-4.66694e-07
8914.93	63.3064	17.4239	65.6604	-15.3886	24.8799	-0.0329468	0.00179857	1.02461	0.0721506	1	11	0.129513	0.00197246	-1.04296e-06	0.0000000E+000	-100.102	0.0146839	0.00404145	0.0152299	15.3886	-1.91266e-06
7944	63.5151	19.4031	66.4127	-16.9873	25.406	-0.032936	0.00191212	1.03255	0.0881352	1	11	0.131337	0.00197759	1.3065e-06	0.0000000E+000	-100.086	0.0144004	0.00439915	0.0150574	16.9873	2.34946e-06
7082.23	63.7539	21.5855	67.309	-18.7048	25.9829	-0.0329265	0.00204407	1.04109	0.10707	1	11	0.132735	0.00197202	9.34297e-07	0.0000000E+000	-100.078	0.0140722	0.00476449	0.0148569	18.7048	-3.72208e-07
6307.73	64.0356	24.0385	68.3989	-20.5757	26.6176	-0.0329182	0.00186083	1.04964	0.129645	1	11	0.133795	0.0019561	1.15934e-06	0.0000000E+000	-100.054	0.0136875	0.00513817	0.0146201	20.5757	2.25048e-07
5621.06	64.3616	26.7496	69.699	-22.5685	27.3183	-0.0329133	0.00195766	1.05848	0.155907	1	11	0.134533	0.00193019	1.59522e-06	0.0000000E+000	-100.062	0.0132487	0.00550635	0.0143474	22.5685	4.35874e-07
5011.6	64.7346	29.7488	71.2429	-24.6812	28.0787	-0.0329103	0.00190246	1.06752	0.186135	1	11	0.135	0.00189493	2.79905e-06	0.0000000E+000	-100.046	0.0127542	0.00586119	0.0140365	24.6812	1.20383e-06
4466.43	65.1671	33.0825	73.0835	-26.9149	28.8377	-0.0329066	0.00200319	1.07711	0.220708	1	11	0.135239	0.00185047	1.64199e-06	0.0000000E+000	-100.07	0.0122008	0.00619383	0.013683	26.9149	-1.15706e-06
3981.27	65.6712	36.7736	75.2662	-29.2473	29.5967	-0.0329025	0.00210448	1.08708	0.259498	1	11	0.135303	0.00179766	2.11789e-06	0.0000000E+000	-100.11	0.0115924	0.00649136	0.0132862	29.2473	4.75898e-07
3546.6	66.2578	40.8879	77.8583	-31.6788	30.3569	-0.0329107	0.00196881	1.09752	0.302687	1	11	0.135221	0.00173676	1.54115e-06	0.0000000E+000	-100.11	0.0109302	0.00674504	0.0128439	31.6788	-5.76741e-07
3161.01	66.9269	45.4185	80.8829	-34.162	31.1167	-0.0329055	0.0019675	1.10856	0.349553	1	11	0.135024	0.00166937	1.09839e-06	0.0000000E+000	-100.094	0.0102303	0.00694255	0.0123635	34.162	-4.42757e-07
2817.3	67.689	50.432	84.4109	-36.6881	31.877	-0.0329151	0.00186157	1.12016	0.39985	1	11	0.134742	0.00159626	2.31752e-06	0.0000000E+000	-100.07	0.00949996	0.00707798	0.0118468	36.6881	1.21913e-06
2510.8	68.5591	55.9812	88.5112	-39.233	32.6367	-0.0328962	0.00206637	1.13231	0.452953	1	11	0.13441	0.00151857	3.89046e-06	0.0000000E+000	-100.11	0.00875121	0.00714571	0.011298	39.233	1.57294e-06
2237.85	69.5451	62.1077	93.241	-41.7666	33.3969	-0.0329068	0.00192531	1.1451	0.508066	1	11	0.134047	0.00143764	4.37101e-06	0.0000000E+000	-100.054	0.00799931	0.00714383	0.0107249	41.7666	4.80547e-07
1995.64	70.6475	68.8439	98.6436	-44.2592	34.1567	-0.032892	0.00209108	1.15844	0.564243	1	11	0.133676	0.00135514	5.02465e-06	0.0000000E+000	-100.102	0.00726038	0.00707502	0.0101375	44.2592	6.53644e-07
1778.29	71.88	76.3405	104.855	-46.7237	34.917	-0.0329118	0.00184855	1.17236	0.62143	1	11	0.1333	0.00127128	4.41127e-06	0.0000000E+000	-100.086	0.00653775	0.00694345	0.00953697	46.7237	-6.13383e-07
1585.51	73.2569	84.5775	111.892	-49.1025	35.6767	-0.0329051	0.00193775	1.18685	0.678118	1	11	0.132949	0.00118819	5.51391e-06	0.0000000E+000	-100.062	0.00585122	0.00675543	0.00893715	49.1025	1.10264e-06
1411.84	74.787	93.7866	119.954	-51.4306	36.4382	-0.032914	0.00189166	1.20197	0.734759	1	11	0.132617	0.00110556	5.36952e-06	0.0000000E+000	-100.118	0.0051975	0.00651792	0.00833651	51.4306	-1.44389e-07
1258.79	76.4588	103.851	128.961	-53.6381	37.1979	-0.0329133	0.00180672	1.21747	0.789514	1	11	0.132312	0.00102598	6.39246e-06	0.0000000E+000	-100.078	0.0045974	0.00624444	0.0077543	53.6381	1.02294e-06
1121.79	78.3022	115.022	139.145	-55.7546	37.9564	-0.0329102	0.00191786	1.23346	0.842856	1	11	0.132036	0.000948913	6.21498e-06	0.0000000E+000	-100.086	0.00404427	0.00594082	0.00718676	55.7546	-1.77476e-07
1000.32	80.3063	127.326	150.536	-57.7599	38.7157	-0.0329076	0.00198941	1.24958	0.893961	1	11	0.131799	0.000875528	6.24917e-06	0.0000000E+000	-100.11	0.0035438	0.00561872	0.00664293	57.7599	3.41906e-08
891.427	82.508	141.01	163.375	-59.6672	39.4745	-0.0329082	0.00190336	1.26615	0.943219	1	11	0.131592	0.00080546	6.32294e-06	0.0000000E+000	-100.078	0.00309118	0.00528297	0.00612088	59.6672	7.37674e-08
794.238	84.9007	156.196	177.779	-61.4736	40.2339	-0.0329105	0.00180765	1.28292	0.99033	1	11	0.131412	0.00073919	6.68678e-06	0.0000000E+000	-100.078	0.00268628	0.00494208	0.00562497	61.4736	3.6384e-07
707.509	87.5162	173.06	193.93	-63.1744	40.9965	-0.0329067	0.0018896	1.29984	1.03513	1	11	0.13126	0.000676842	7.21441e-06	0.0000000E+000	-100.086	0.00232701	0.00460158	0.0051565	63.1744	5.27628e-07
631.01	90.2925	191.57	211.783	-64.7642	41.7544	-0.0329107	0.00187603	1.31661	1.07729	1	11	0.131122	0.000619133	7.68085e-06	0.0000000E+000	-100.094	0.00201312	0.00427117	0.00472182	64.7642	4.66437e-07
562.339	93.3326	212.24	231.855	-66.2625	42.5109	-0.0329134	0.00187808	1.3335	1.11742	1	11	0.131019	0.000565091	8.59932e-06	0.0000000E+000	-100.03	0.0017362	0.00394815	0.00431304	66.2625	9.1847e-07
501.444	96.6073	235.035	254.115	-67.6557	43.2682	-0.0329089	0.00186135	1.35041	1.15523	1	11	0.130921	0.000515206	8.70424e-06	0.0000000E+000	-100.054	0.00149606	0.00363976	0.00393523	67.6557	1.04922e-07
446.859	100.188	260.604	279.199	-68.971	44.0249	-0.0329103	0.00189146	1.36669	1.1907	1	11	0.130852	0.00046867	9.5102e-06	0.0000000E+000	-100.086	0.00128525	0.00334313	0.00358168	68.971	8.05964e-07
398.089	104.023	288.993	307.144	-70.2037	45.0407	-0.0329171	0.000180913	1.38342	1.22474	1	12	0.133408	0.000434349	9.72145e-06	0.0000000E+000	-100.094	0.00110266	0.00306339	0.0032558	70.2037	2.11246e-07
354.66	108.194	320.591	338.356	-71.3514	45.8009	-0.0329218	0.000151651	1.39977	1.25665	1	12	0.132859	0.00039266	9.64687e-06	0.0000000E+000	-100.086	0.000945052	0.0028003	0.00295547	71.3514	-7.45811e-08
316.316	112.697	355.371	372.812	-72.4048	46.5579	-0.0329179	0.000166122	1.41585	1.28647	1	12	0.132416	0.000355181	9.86681e-06	0.0000000E+000	-100.038	0.000810837	0.00255683	0.00268232	72.4048	2.19946e-07
281.894	117.646	394.326	411.502	-73.3877	47.3134	-0.0329139	0.000181116	1.43179	1.31476	1	12	0.132052	0.000320902	9.6488e-06	0.0000000E+000	-100.038	0.000694758	0.00232869	0.00243012	73.3877	-2.1801e-07
251.044	123.045	437.984	454.94	-74.3081	48.0699	-0.0329147	0.000178747	1.44748	1.34159	1	12	0.131751	0.000289601	9.48105e-06	0.0000000E+000	-100.07	0.000594505	0.00211617	0.00219809	74.3081	-1.67754e-07
223.925	128.841	485.887	502.679	-75.1488	48.8327	-0.0329149	0.000182009	1.46279	1.36669	1	12	0.131511	0.00026162	9.37872e-06	0.0000000E+000	-100.038	0.000509886	0.00192289	0.00198934	75.1488	-1.02331e-07
199.553	135.206	539.646	556.325	-75.9344	49.5942	-0.0329094	0.000170724	1.47793	1.39063	1	12	0.131316	0.000236042	9.65425e-06	0.0000000E+000	-100.094	0.000436855	0.00174362	0.00179751	75.9344	2.75537e-07
177.781	142.151	599.706	616.323	-76.665	50.3622	-0.0329117	0.000166062	1.49278	1.41337	1	12	0.131157	0.000212806	9.90949e-06	0.0000000E+000	-100.062	0.000374226	0.00157878	0.00162253	76.665	2.55234e-07
158.428	149.823	666.268	682.906	-77.3267	51.1287	-0.0329201	0.000174156	1.50778	1.43521	1	12	0.131025	0.000191863	9.79869e-06	0.0000000E+000	-100.062	0.000321261	0.00142866	0.00146433	77.3267	-1.10801e-07
141.311	158.064	739.978	756.672	-77.9425	51.8819	-0.0329197	0.000181242	1.52203	1.45562	1	12	0.130929	0.000173032	9.98119e-06	0.0000000E+000	-100.078	0.000276069	0.00129242	0.00132158	77.9425	1.82504e-07
125.846	167.408	823.19	840.04	-78.5048	52.6374	-0.0329144	0.000161119	1.53632	1.47531	1	12	0.130847	0.000155763	9.91119e-06	0.0000000E+000	-100.062	0.000237233	0.00116654	0.00119042	78.5048	-7.00016e-08
112.19	177.353	914.895	931.926	-79.0293	53.3829	-0.0329153	0.000147094	1.55058	1.49443	1	12	0.130774	0.000140327	9.84795e-06	0.0000000E+000	-100.054	0.000204209	0.00105344	0.00107305	79.0293	-6.32366e-08
100.032	188.256	1017.07	1034.34	-79.5134	54.1427	-0.0329214	0.000148623	1.56434	1.51252	1	12	0.130719	0.000126379	9.94223e-06	0.0000000E+000	-100.094	0.000175962	0.00095065	0.000966798	79.5134	9.42757e-08
89.116	200.582	1131.75	1149.39	-79.9497	54.9097	-0.0329162	0.000159719	1.57802	1.52996	1	12	0.130678	0.000113693	1.00806e-05	0.0000000E+000	-100.062	0.00015183	0.000856676	0.000870026	79.9497	1.38379e-07
79.4155	214.374	1259.25	1277.37	-80.3387	55.6742	-0.0329205	0.000158506	1.59148	1.54666	1	12	0.130648	0.000102278	9.99931e-06	0.0000000E+000	-100.086	0.000131382	0.000771754	0.000782857	80.3387	-8.12946e-08
70.8387	229.044	1399.85	1418.46	-80.7076	56.4254	-0.0329203	0.000144818	1.60497	1.56313	1	12	0.130614	9.20814e-05	1.0075e-05	0.0000000E+000	-100.086	0.000113837	0.000695736	0.000704988	80.7076	7.57064e-08
63.0823	245.939	1559.21	1578.49	-81.0364	57.2059	-0.0329171	0.000179412	1.61811	1.57883	1	12	0.130589	8.27305e-05	1.0146e-05	0.0000000E+000	-100.062	9.8706e-05	0.00062578	0.000633517	81.0364	7.10074e-08
56.2418	263.954	1735.38	1755.34	-81.3515	57.9504	-0.0329164	0.000169714	1.63067	1.5938	1	12	0.130572	7.43855e-05	1.01866e-05	0.0000000E+000	-100.022	8.56657e-05	0.000563213	0.000569691	81.3515	4.05631e-08
50.1444	284.916	1930.21	1951.12	-81.6032	58.7072	-0.0329216	0.000186983	1.64435	1.60929	1	12	0.130558	6.69144e-05	1.02348e-05	0.0000000E+000	-100.046	7.48426e-05	0.000507032	0.000512526	81.6032	4.82419e-08
44.6712	307.687	2149.9	2171.81	-81.8553	59.4712	-0.0329167	0.000188512	1.65719	1.62393	1	12	0.130542	6.01077e-05	1.02965e-05	0.0000000E+000	-100.086	6.52327e-05	0.000455801	0.000460446	81.8553	6.17151e-08
39.8089	332.602	2394.1	2417.1	-82.0908	60.2337	-0.0329112	0.00017182	1.66992	1.6383	1	12	0.130536	5.40054e-05	1.02526e-05	0.0000000E+000	-100.07	5.69293e-05	0.000409784	0.000413719	82.0908	-4.39086e-08
35.4653	361.258	2668.46	2692.8	-82.2901	61.2321	-0.0329166	1.19032e-05	1.68173	1.65146	1	13	0.130805	4.85758e-05	1.03428e-05	0.0000000E+000	-100.118	4.98207e-05	0.000368003	0.00037136	82.2901	9.01252e-08
31.6296	393.351	2969.99	2995.93	-82.4556	61.9564	-0.0329115	1.90813e-05	1.69423	1.66502	1	13	0.130743	4.36404e-05	1.03144e-05	0.0000000E+000	-100.078	4.38246e-05	0.000330897	0.000333786	82.4556	-2.83734e-08
28.1701	429.321	3309.77	3337.49	-82.6092	62.7618	-0.0329075	1.55631e-05	1.707	1.67876	1	13	0.130693	3.91591e-05	1.02242e-05	0.0000000E+000	-100.086	3.85426e-05	0.000297137	0.000299626	82.6092	-9.01825e-08
25.1044	469.859	3686.62	3716.44	-82.7368	63.5179	-0.0329103	1.60421e-05	1.71965	1.69217	1	13	0.130656	3.51563e-05	1.02205e-05	0.0000000E+000	-100.046	3.40183e-05	0.000266916	0.000269075	82.7368	-3.75546e-09
22.3854	515.876	4103.6	4135.9	-82.8348	64.2044	-0.0329146	6.36367e-06	1.73257	1.70561	1	13	0.130624	3.15829e-05	1.03183e-05	0.0000000E+000	-100.086	3.01582e-05	0.000239897	0.000241785	82.8348	9.78745e-08
19.9553	567.989	4569.61	4604.78	-82.9146	64.9662	-0.0329046	1.94018e-05	1.74535	1.71879	1	13	0.130596	2.8361e-05	1.03318e-05	0.0000000E+000	-100.038	2.67869e-05	0.000215507	0.000217166	82.9146	1.34475e-08
17.7961	625.739	5087.22	5125.56	-82.9877	65.8105	-0.0329033	1.29907e-05	1.75798	1.73178	1	13	0.130576	2.54755e-05	1.03453e-05	0.0000000E+000	-100.11	2.38183e-05	0.000193641	0.000195101	82.9877	1.35162e-08
15.8576	692.033	5667.55	5709.65	-83.0384	66.532	-0.0328969	1.27342e-05	1.77087	1.74486	1	13	0.130558	2.28663e-05	1.02448e-05	0.0000000E+000	-100.054	2.1228e-05	0.000173851	0.000175142	83.0384	-1.00494e-07
14.119	769.513	6316.52	6363.22	-83.0541	67.3342	-0.0329001	1.84263e-05	1.78459	1.75849	1	13	0.130547	2.05159e-05	1.03449e-05	0.0000000E+000	-100.078	1.90047e-05	0.000156	0.000157153	83.0541	1.00134e-07
12.6008	854.916	7026.42	7078.24	-83.0628	68.2249	-0.0328956	1.37064e-05	1.79758	1.77135	1	13	0.130539	1.84422e-05	1.03509e-05	0.0000000E+000	-100.054	1.70637e-05	0.000140244	0.000141278	83.0628	5.98167e-09
11.2249	952.657	7828.06	7885.82	-83.0614	68.9089	-0.0328943	1.03737e-05	1.81128	1.78484	1	13	0.130527	1.65521e-05	1.03248e-05	0.0000000E+000	-100.094	1.53194e-05	0.000125881	0.00012681	83.0614	-2.61404e-08
10.0032	1068.38	8717.92	8783.14	-83.0133	69.6697	-0.0328982	1.48409e-05	1.82502	1.79802	1	13	0.130523	1.48606e-05	1.02472e-05	0.0000000E+000	-100.07	1.38492e-05	0.000113009	0.000113854	83.0133	-7.75823e-08
8.91838	1194.42	9704	9777.23	-82.983	70.514	-0.0329007	1.69039e-05	1.83901	1.81156	1	13	0.13052	1.33493e-05	1.03676e-05	0.0000000E+000	-100.054	1.24947e-05	0.000101512	0.000102278	82.983	1.20373e-07
7.93953	1343.13	10811.5	10894.6	-82.9183	71.4517	-0.0329024	1.61412e-05	1.85413	1.82595	1	13	0.130515	1.19798e-05	1.02639e-05	0.0000000E+000	-100.086	1.13161e-05	9.10885e-05	9.17887e-05	82.9183	-1.03644e-07
7.07654	1512.24	12031.4	12126.1	-82.836	72.01	-0.032911	8.89501e-06	1.86931	1.84024	1	13	0.13051	1.07627e-05	1.0277e-05	0.0000000E+000	-100.062	1.02844e-05	8.18231e-05	8.24669e-05	82.836	1.30867e-08
6.31058	1745.29	13399.5	13512.7	-82.579	72.6302	-0.0329166	4.57141e-05	1.88218	1.85078	1	13	0.130499	9.65748e-06	1.0327e-05	0.0000000E+000	-100.078	9.55837e-06	7.33845e-05	7.40044e-05	82.579	4.99568e-08
5.6205	1941.39	14907.7	15033.6	-82.5803	73.3167	-0.0329086	2.59957e-05	1.89948	1.8678	1	13	0.130505	8.68092e-06	1.03879e-05	0.0000000E+000	-100.086	8.58989e-06	6.59607e-05	6.65176e-05	82.5803	6.09089e-08
5.01444	2165.37	16615.4	16755.9	-82.5749	74.0742	-0.0328975	-1.37376e-05	1.91024	1.87834	1	13	0.130508	7.78878e-06	1.04144e-05	0.0000000E+000	-100.086	7.71257e-06	5.91801e-05	5.96806e-05	82.5749	2.65453e-08
4.46939	2509.7	18426.2	18596.3	-82.2439	74.9155	-0.0328923	-4.8789e-07	1.93257	1.89737	1	13	0.1305	7.0175e-06	1.03265e-05	0.0000000E+000	-100.03	7.25716e-06	5.32821e-05	5.3774e-05	82.2439	-8.79342e-08
3.97785	2779.25	20570	20756.9	-82.3053	75.8522	-0.032902	2.5826e-05	1.94508	1.91021	1	13	0.130504	6.28725e-06	1.02953e-05	0.0000000E+000	-100.062	6.45063e-06	4.77429e-05	4.81767e-05	82.3053	-3.12075e-08
3.55114	3206.86	22736	22961	-81.9715	76.8934	-0.0329041	2.60049e-05	1.97124	1.93279	1	13	0.130502	5.68363e-06	1.04161e-05	0.0000000E+000	-100.094	6.08273e-06	4.31252e-05	4.35521e-05	81.9715	1.20861e-07
3.1604	3635.02	25350.6	25609.9	-81.84	78.0553	-0.0328943	9.08692e-06	1.98651	1.94649	1	13	0.130502	5.09576e-06	1.03907e-05	0.0000000E+000	-100.118	5.54234e-06	3.86521e-05	3.90475e-05	81.84	-2.5407e-08
2.81836	4145.63	28058.1	28362.7	-81.5953	79.7546	-0.0328976	-9.2817e-06	2.01264	1.96964	1	14	0.130523	4.60191e-06	1.03268e-05	0.0000000E+000	-100.054	5.15342e-06	3.48789e-05	3.52576e-05	81.5953	-6.3922e-08
2.51367	4751.89	31258.7	31617.8	-81.3562	81.1987	-0.0329002	1.85578e-05	2.02554	1.97979	1	14	0.130516	4.12792e-06	1.04083e-05	0.0000000E+000	-100.102	4.75339e-06	3.12685e-05	3.16278e-05	81.3562	8.1475e-08
2.23982	5257.93	34724.5	35120.3	-81.3898	82.8133	-0.0328971	-1.31193e-05	2.04631	2.00044	1	14	0.130511	3.71612e-06	1.04297e-05	0.0000000E+000	-100.046	4.26283e-06	2.81526e-05	2.84736e-05	81.3898	2.14417e-08
1.99706	5927.7	38374.9	38830.1	-81.219	84.6167	-0.0328976	5.71689e-06	2.07674	2.02834	1	14	0.130509	3.36104e-06	1.03252e-05	0.0000000E+000	-100.086	3.93142e-06	2.54514e-05	2.57532e-05	81.219	-1.04549e-07
1.77961	6820.9	42491.5	43035.4	-80.8805	86.6348	-0.0328926	4.2937e-06	2.10471	2.05184	1	14	0.130507	3.03254e-06	1.04701e-05	0.0000000E+000	-100.046	3.68289e-06	2.29429e-05	2.32367e-05	80.8805	1.44885e-07
1.58469	7832.71	47199.8	47845.3	-80.5778	88.894	-0.0328927	-4.68106e-06	2.12783	2.0708	1	14	0.130504	2.72763e-06	1.03408e-05	0.0000000E+000	-100.054	3.42163e-06	2.06187e-05	2.09007e-05	80.5778	-1.29215e-07
1.41224	8873.41	52384.2	53130.4	-80.3859	91.4232	-0.0328966	7.20587e-06	2.15135	2.09135	1	14	0.130504	2.45629e-06	1.04256e-05	0.0000000E+000	-100.078	3.14343e-06	1.85573e-05	1.88216e-05	80.3859	8.47489e-08
1.25967	9995.33	58012.6	58867.4	-80.2242	94.252	-0.0328938	-1.80506e-06	2.17791	2.11512	1	14	0.130502	2.21689e-06	1.0402e-05	0.0000000E+000	-100.102	2.88435e-06	1.67407e-05	1.69873e-05	80.2242	-2.35859e-08
1.12249	11278.3	64216.5	65199.4	-80.0387	97.42	-0.0328936	4.67264e-06	2.20797	2.1419	1	14	0.1305	2.00156e-06	1.03731e-05	0.0000000E+000	-100.094	2.65313e-06	1.51064e-05	1.53376e-05	80.0387	-2.88714e-08
1.00006	12782.5	71073	72213.4	-79.8043	100.969	-0.0328909	3.3399e-07	2.23917	2.16901	1	14	0.1305	1.80715e-06	1.04547e-05	0.0000000E+000	-100.062	2.45122e-06	1.36292e-05	1.38479e-05	79.8043	8.15371e-08