File: data/DE_40_11_60.mpt
EC-Lab ASCII FILE
Nb header lines : 75

Potentio Electrochemical Impedance Spectroscopy

Run on channel : 3 (SN 20921)
User :
CE vs. WE compliance from -10 V to 10 V
Electrode connection : standard
Ewe ctrl range : min = -10.00 V, max = 10.00 V
Safety Limits :
	Do not start on E overload
Acquisition started on : 01/24/2020 09:53:15
Technique started on : 01/24/2020 09:53:16
Saved on :
	File : DE_40_11_60.mpr
	Directory : P:\Chemistry\Data\VMP3\Kyler\DOE\DE_40\2ND 60C\
	Host : 10.0.4.99
Device : VMP3 (SN 0183)
Address : USB
EC-Lab for windows v11.33 (software)
Internet server v11.32 (firmware)
Command interpretor v11.33 (firmware)
Electrode material :
Initial state :
Electrolyte :
Comments :
Electrode surface area : 0.001 cm²
Characteristic mass : 0.001 g
Equivalent Weight : 0.000 g/eq.
Density : 0.000 g/cm3
Record Analogic IN 1
Cycle Definition : Charge/Discharge alternance
External device configuration :
   device type : Thermostat
   device name : Other
   Analog OUT :
      mode : E/V
      unit : T/°C
      max : 400.000 at 5.000 V
      min : -100.000 at 0.000 V
      current : 0.000
   Analog IN 1 :
      unit : T/°C
      max : 400.000 at 5.000 V
      min : -100.000 at 0.000 V
Mode                Single sine
E (V)               0.0000
vs.                 Eoc
tE (h:m:s)          0:00:0.0000
record              0
dI                  1.000
unit dI             mA
dt (s)              0.000
fi                  1.000
unit fi             MHz
ff                  1.000
unit ff             Hz
Nd                  20
Points              per decade
spacing             Logarithmic
Va (mV)             128.0
pw                  0.50
Na                  3
corr                0
E range min (V)     -10.000
E range max (V)     10.000
I Range             Auto
Bandwidth           5
nc cycles           0
goto Ns'            0
nr cycles           0
inc. cycle          1

freq/Hz	Re(Z)/Ohm	-Im(Z)/Ohm	|Z|/Ohm	Phase(Z)/deg	time/s	<Ewe>/V	<I>/mA	Cs/µF	Cp/µF	cycle number	I Range	|Ewe|/V	|I|/A	(Q-Qo)/mA.h	Analog OUT/V	Analog IN 1/V	Re(Y)/Ohm-1	Im(Y)/Ohm-1	|Y|/Ohm-1	Phase(Y)/deg	dq/mA.h
1.00002e+06	20.5924	-6.03541	21.4586	16.3353	1.8466	0.0207179	0.245919	-0.0263697	-0.00208601	1	9	3.15169e-05	1.46873e-06	2.59127e-05	0.0000000E+000	-100.072	0.0447201	-0.013107	0.0466013	-16.3353	2.59127e-05
891247	77.4271	36.3768	85.5467	-25.1651	3.02248	0.021058	0.00213874	0.00490905	0.000887647	1	11	0.000492028	5.75158e-06	5.03981e-05	0.0000000E+000	-100.12	0.01058	0.00497071	0.0116895	25.1651	2.44854e-05
794333	81.3679	34.148	88.243	-22.7666	3.61849	0.0214083	0.00225281	0.00586748	0.000878665	1	11	0.0014496	1.64273e-05	5.08232e-05	0.0000000E+000	-100.072	0.0104494	0.00438536	0.0113323	22.7666	4.25113e-07
707950	85.7041	32.3624	91.6107	-20.6868	4.21347	0.0217145	0.00229363	0.00694668	0.000866893	1	11	0.00301075	3.28646e-05	5.12881e-05	0.0000000E+000	-100.096	0.010212	0.00385609	0.0109158	20.6868	4.64881e-07
630957	89.4265	30.7764	94.5742	-18.991	4.80848	0.0219648	0.00220006	0.00819603	0.000867946	1	11	0.00527421	5.5768e-05	5.1639e-05	0.0000000E+000	-100.08	0.00999818	0.0034409	0.0105737	18.991	3.5085e-07
562342	92.7699	29.2183	97.2624	-17.4821	5.40447	0.022189	0.0023762	0.00968644	0.000874148	1	11	0.00829757	8.53111e-05	5.19184e-05	0.0000000E+000	-100.064	0.00980658	0.00308863	0.0102815	17.4821	2.79446e-07
501206	95.7705	27.6326	99.6772	-16.0944	6.00048	0.022337	0.00218534	0.0114916	0.000883149	1	11	0.012091	0.000121302	5.2145e-05	0.0000000E+000	-100.064	0.00963917	0.00278119	0.0100324	16.0944	2.2657e-07
446686	98.3931	25.9595	101.76	-14.7798	6.59648	0.0224654	0.00225058	0.0137253	0.000893225	1	11	0.0167147	0.000164256	5.25457e-05	0.0000000E+000	-100.104	0.0095019	0.00250693	0.00982705	14.7798	4.00668e-07
398103	100.612	24.3556	103.518	-13.608	7.19149	0.0225185	0.00236148	0.0164144	0.000908632	1	11	0.0221255	0.000213734	5.29652e-05	0.0000000E+000	-100.104	0.00938894	0.00227281	0.00966012	13.608	4.19497e-07
354810	102.501	22.6657	104.977	-12.469	7.78749	0.0225106	0.00232495	0.0197904	0.00092258	1	11	0.0284184	0.00027071	5.3935e-05	0.0000000E+000	-100.104	0.00930119	0.00205674	0.00952588	12.469	9.69843e-07
316230	104.077	21.001	106.175	-11.4082	8.38347	0.0225196	0.00230519	0.023965	0.000937596	1	11	0.035531	0.000334647	5.51133e-05	0.0000000E+000	-100.056	0.00923237	0.00186294	0.00941845	11.4082	1.1783e-06
281835	105.401	19.4056	107.173	-10.432	8.97949	0.0225031	0.00222729	0.0291004	0.000954074	1	11	0.0436125	0.000406936	5.45686e-05	0.0000000E+000	-100.064	0.00917648	0.00168949	0.00933071	10.432	-5.44707e-07
251188	106.431	17.9321	107.931	-9.56375	9.57548	0.022493	0.00213596	0.0353338	0.000975359	1	11	0.0525961	0.000487314	5.53555e-05	0.0000000E+000	-100.104	0.00913644	0.00153937	0.00926521	9.56375	7.86894e-07
223872	107.296	16.5703	108.568	-8.77915	10.1705	0.0225534	0.00248674	0.0429032	0.000999419	1	11	0.0626315	0.000576887	5.6124e-05	0.0000000E+000	-100.12	0.0091029	0.00140581	0.00921081	8.77915	7.68551e-07
199544	107.981	15.3384	109.065	-8.08461	10.7675	0.0225321	0.00226793	0.0519998	0.00102847	1	11	0.0735485	0.000674352	5.6736e-05	0.0000000E+000	-100.032	0.00907769	0.00128946	0.00916882	8.08461	6.11927e-07
177832	108.534	14.2516	109.465	-7.48071	11.3625	0.0225328	0.00221164	0.0627984	0.00106444	1	11	0.0853594	0.000779785	5.62479e-05	0.0000000E+000	-100.112	0.00905756	0.00118935	0.00913531	7.48071	-4.88078e-07
158486	108.971	13.3108	109.781	-6.96414	11.9585	0.0225649	0.00242822	0.0754442	0.00110911	1	11	0.0980266	0.000892926	5.66564e-05	0.0000000E+000	-100.096	0.00904182	0.00110445	0.00910902	6.96414	4.0852e-07
141256	109.323	12.5039	110.036	-6.52489	12.5545	0.022544	0.00218294	0.0901087	0.00116356	1	11	0.111537	0.00101364	5.73718e-05	0.0000000E+000	-100.08	0.00902906	0.00103271	0.00908793	6.52489	7.15429e-07
125909	109.624	11.8373	110.261	-6.16298	13.0145	0.0225689	0.00238834	0.106785	0.00123075	1	11	0.126021	0.00114293	5.81226e-05	0.0000000E+000	-100.12	0.00901698	0.000973664	0.0090694	6.16298	7.5078e-07
112205	109.861	11.3062	110.441	-5.87584	13.6105	0.0226837	0.00285506	0.125456	0.00131481	1	11	0.12895	0.00116758	5.78893e-05	0.0000000E+000	-100.08	0.009007	0.000926945	0.00905457	5.87584	-2.33348e-07
100004	110.067	10.8984	110.605	-5.65475	14.2065	0.0226336	0.00216207	0.14603	0.00141779	1	11	0.129659	0.00117227	5.63386e-05	0.0000000E+000	-100.08	0.00899715	0.000890858	0.00904114	5.65475	-1.5507e-06
89129.3	110.217	10.6125	110.727	-5.4999	14.8015	0.0226767	0.00220251	0.168261	0.00154566	1	11	0.129656	0.00117096	5.45841e-05	0.0000000E+000	-100.104	0.00898968	0.000865593	0.00903126	5.4999	-1.75443e-06
79433.3	110.366	10.4587	110.86	-5.41338	15.3965	0.0226833	0.00198723	0.191576	0.00170506	1	11	0.129604	0.00116907	5.58811e-05	0.0000000E+000	-100.056	0.00898012	0.000850987	0.00902035	5.41338	1.29695e-06
70795	110.467	10.4235	110.957	-5.3904	15.9925	0.0227488	0.00237306	0.215677	0.00190335	1	11	0.12947	0.00116684	5.6182e-05	0.0000000E+000	-100.064	0.00897262	0.000846646	0.00901247	5.3904	3.00885e-07
63093.8	110.569	10.5143	111.068	-5.43204	16.5895	0.0227628	0.00225936	0.239913	0.00214997	1	11	0.129449	0.00116549	5.7502e-05	0.0000000E+000	-100.112	0.00896305	0.000852315	0.00900348	5.43204	1.32e-06
56237	110.658	10.7269	111.177	-5.53681	17.1855	0.0227838	0.00231006	0.26383	0.0024561	1	11	0.129517	0.00116497	5.62664e-05	0.0000000E+000	-100.08	0.00895273	0.000867856	0.0089947	5.53681	-1.23558e-06
50122.5	110.737	11.0681	111.289	-5.70772	17.7805	0.022789	0.00226365	0.28689	0.00283765	1	11	0.129176	0.00116073	5.58421e-05	0.0000000E+000	-100.096	0.00894109	0.000893657	0.00898564	5.70772	-4.24248e-07
44666.7	110.831	11.5396	111.43	-5.94416	18.2405	0.0228074	0.00232777	0.308777	0.00331147	1	11	0.140057	0.0012569	5.69421e-05	0.0000000E+000	-100.12	0.00892597	0.000929362	0.00897422	5.94416	1.09999e-06
39814.1	110.908	12.1513	111.572	-6.25251	18.8355	0.0228367	0.00244668	0.328973	0.00390211	1	11	0.130349	0.0011683	5.81325e-05	0.0000000E+000	-100.096	0.00890954	0.000976149	0.00896285	6.25251	1.19034e-06
35481	111.008	12.9046	111.755	-6.63083	19.2955	0.0228153	0.0021766	0.3476	0.0046348	1	11	0.139671	0.00124979	5.75369e-05	0.0000000E+000	-100.088	0.00888825	0.00103325	0.00894811	6.63083	-5.95548e-07
31621.1	111.102	13.8244	111.959	-7.09284	19.8905	0.0228501	0.00236765	0.364079	0.00555099	1	11	0.130096	0.001162	6.01122e-05	0.0000000E+000	-100.072	0.00886348	0.00110288	0.00893183	7.09284	2.57531e-06
28188.1	111.215	14.8935	112.208	-7.62741	20.3505	0.0228456	0.00239393	0.379104	0.00667884	1	11	0.137608	0.00122636	6.001e-05	0.0000000E+000	-100.104	0.00883315	0.0011829	0.008912	7.62741	-1.02203e-07
25116.9	111.332	16.1445	112.497	-8.25103	20.9465	0.0228547	0.00230875	0.392492	0.00808347	1	11	0.129666	0.00115262	5.93749e-05	0.0000000E+000	-100.064	0.00879714	0.00127569	0.00888915	8.25103	-6.35089e-07
22389	111.488	17.5829	112.866	-8.96237	21.4065	0.0228538	0.00232441	0.404292	0.00981183	1	11	0.135409	0.00119973	6.08295e-05	0.0000000E+000	-100.072	0.0087519	0.00138027	0.00886007	8.96237	1.45459e-06
19948.8	111.658	19.2381	113.303	-9.77579	21.8655	0.0228493	0.00235125	0.414707	0.0119559	1	11	0.140581	0.00124075	6.06148e-05	0.0000000E+000	-100.096	0.00869773	0.00149857	0.00882588	9.77579	-2.14777e-07
17786.9	111.839	21.1074	113.813	-10.6878	22.4615	0.0228672	0.0023287	0.423922	0.0145804	1	11	0.129692	0.00113952	5.87276e-05	0.0000000E+000	-100.08	0.00863392	0.00162948	0.00878634	10.6878	-1.88718e-06
15847.7	112.068	23.2317	114.451	-11.7115	22.9205	0.0228703	0.00226756	0.432288	0.0178114	1	11	0.133192	0.00116375	5.84351e-05	0.0000000E+000	-100.056	0.00855548	0.00177355	0.00873738	11.7115	-2.92467e-07
14121.9	112.336	25.6334	115.224	-12.8539	23.3805	0.022864	0.00228061	0.439664	0.0217596	1	11	0.13614	0.00118153	5.86273e-05	0.0000000E+000	-100.088	0.00846129	0.00193074	0.00867877	12.8539	1.92234e-07
12590.9	112.647	28.3125	116.15	-14.1084	23.8405	0.0228716	0.00226644	0.446461	0.0265278	1	11	0.138574	0.00119306	5.80464e-05	0.0000000E+000	-100.048	0.00834985	0.00209864	0.00860954	14.1084	-5.80931e-07
11217.7	113.012	31.3388	117.277	-15.499	24.2995	0.0228754	0.00237138	0.452724	0.0323277	1	11	0.140565	0.00119858	5.88014e-05	0.0000000E+000	-100.04	0.00821677	0.00227855	0.00852685	15.499	7.54952e-07
10002.2	113.413	34.6941	118.601	-17.0094	24.8955	0.022869	0.00236336	0.458636	0.0392468	1	11	0.129443	0.00109142	5.82246e-05	0.0000000E+000	-100.096	0.00806283	0.0024665	0.00843166	17.0094	-5.76801e-07
8914.93	113.905	38.4668	120.225	-18.6603	25.3779	0.0228745	0.00237063	0.464104	0.0475116	1	11	0.130551	0.00108589	5.8847e-05	0.0000000E+000	-100.064	0.0078805	0.00266132	0.00831774	18.6603	6.22398e-07
7944	114.476	42.6858	122.176	-20.4494	25.904	0.0228912	0.00243326	0.469351	0.057292	1	11	0.131389	0.00107541	5.83202e-05	0.0000000E+000	-100.12	0.00766912	0.00285965	0.00818492	20.4494	-5.26726e-07
7082.23	115.137	47.3599	124.497	-22.359	26.4809	0.0229006	0.00247445	0.474503	0.0686659	1	11	0.131992	0.0010602	5.89901e-05	0.0000000E+000	-100.08	0.00742842	0.00305556	0.00803231	22.359	6.69893e-07
6307.73	115.903	52.5953	127.278	-24.408	27.1156	0.0229094	0.00235814	0.479733	0.0819192	1	11	0.132393	0.00104018	5.93418e-05	0.0000000E+000	-100.064	0.00715461	0.00324668	0.0078568	24.408	3.51647e-07
5621.06	116.791	58.3963	130.576	-26.5654	27.8163	0.0229074	0.00238573	0.484861	0.0969746	1	11	0.13263	0.00101572	5.96928e-05	0.0000000E+000	-100.056	0.00684982	0.00342496	0.00765835	26.5654	3.51052e-07
5011.6	117.807	64.7966	134.451	-28.8119	28.5767	0.0229285	0.00250893	0.490107	0.113833	1	11	0.132735	0.000987237	5.95511e-05	0.0000000E+000	-100.096	0.00651693	0.00358448	0.00743767	28.8119	-1.41708e-07
4466.43	118.991	71.9134	139.034	-31.1471	29.3367	0.0229162	0.00245861	0.495507	0.132565	1	11	0.132735	0.000954694	5.93068e-05	0.0000000E+000	-100.12	0.00615564	0.00372022	0.00719249	31.1471	-2.44308e-07
3981.27	120.362	79.7825	144.403	-33.5385	30.0967	0.0229069	0.00231863	0.501061	0.152951	1	11	0.132644	0.000918567	5.92157e-05	0.0000000E+000	-100.08	0.00577213	0.00382608	0.00692505	33.5385	-9.10943e-08
3546.6	121.948	88.5265	150.693	-35.9772	30.8569	0.0229089	0.00238796	0.506915	0.174943	1	11	0.132492	0.000879222	5.90542e-05	0.0000000E+000	-100.08	0.0053702	0.00389842	0.00663602	35.9772	-1.6149e-07
3161.01	123.764	98.1544	157.962	-38.4171	31.6167	0.0229038	0.0022506	0.512961	0.198062	1	11	0.132294	0.000837508	5.89642e-05	0.0000000E+000	-100.072	0.00496012	0.00393375	0.00633065	38.4171	-9.00759e-08
2817.3	125.848	108.77	166.339	-40.8369	32.377	0.0229103	0.00231005	0.51937	0.222081	1	11	0.132071	0.000793987	5.92305e-05	0.0000000E+000	-100.08	0.00454839	0.00393118	0.00601182	40.8369	2.66344e-07
2510.8	128.216	120.488	175.945	-43.2202	33.1367	0.0229283	0.00242095	0.526093	0.246715	1	11	0.13184	0.000749325	6.02876e-05	0.0000000E+000	-100.088	0.00414178	0.00389214	0.00568358	43.2202	1.0571e-06
2237.85	130.93	133.416	186.929	-45.5388	33.8969	0.0229115	0.00235385	0.533065	0.271545	1	11	0.131602	0.000704022	6.11378e-05	0.0000000E+000	-100.064	0.00374701	0.00381815	0.00534961	45.5388	8.50247e-07
1995.64	133.947	147.558	199.286	-47.7681	34.6567	0.0229077	0.00235143	0.540476	0.296309	1	11	0.131373	0.000659216	6.15552e-05	0.0000000E+000	-100.056	0.0033727	0.00371541	0.0050179	47.7681	4.17375e-07
1778.29	137.415	163.214	213.358	-49.9049	35.4159	0.0229063	0.00235515	0.548354	0.320891	1	11	0.13116	0.000614742	6.24671e-05	0.0000000E+000	-100.088	0.00301868	0.00358542	0.00468697	49.9049	9.11911e-07
1585.51	141.248	180.383	229.105	-51.9375	36.1757	0.0229206	0.00244797	0.556487	0.344968	1	11	0.130961	0.000571618	6.32968e-05	0.0000000E+000	-100.096	0.00269099	0.00343658	0.00436481	51.9375	8.29709e-07
1411.84	145.591	199.479	246.959	-53.8759	36.9352	0.0229121	0.00234378	0.565116	0.368709	1	11	0.130778	0.000529555	6.33897e-05	0.0000000E+000	-100.064	0.00238718	0.00327076	0.00404925	53.8759	9.28212e-08
1258.79	150.434	220.27	266.739	-55.6688	37.695	0.0229078	0.00231489	0.573998	0.391427	1	11	0.130624	0.000489709	6.37421e-05	0.0000000E+000	-100.112	0.00211434	0.00309588	0.00374899	55.6688	3.52441e-07
1121.79	155.806	243.249	288.87	-57.3595	38.4534	0.0229161	0.00238516	0.583251	0.413575	1	11	0.130487	0.000451717	6.43888e-05	0.0000000E+000	-100.112	0.00186716	0.00291506	0.00346177	57.3595	6.46652e-07
1000.32	161.715	268.337	313.3	-58.9245	39.2127	0.0229196	0.00244443	0.592925	0.434953	1	11	0.130364	0.000416099	6.52382e-05	0.0000000E+000	-100.056	0.00164752	0.00273376	0.00319183	58.9245	8.49413e-07
891.427	168.276	296.208	340.67	-60.399	40.2234	0.0229073	0.000203477	0.60275	0.455684	1	12	0.135179	0.000396802	6.60632e-05	0.0000000E+000	-100.096	0.00144996	0.00255228	0.00293539	60.399	8.24991e-07
794.238	175.59	326.878	371.054	-61.7565	40.983	0.022904	0.000191302	0.613033	0.475752	1	12	0.134235	0.000361767	6.60083e-05	0.0000000E+000	-100.064	0.00127534	0.00237417	0.00269502	61.7565	-5.49097e-08
707.509	183.635	360.719	404.772	-63.0202	41.7454	0.0229101	0.000195869	0.623618	0.495264	1	12	0.133442	0.000329673	6.61392e-05	0.0000000E+000	-100.072	0.00112082	0.00220165	0.00247053	63.0202	1.30909e-07
631.01	192.424	397.601	441.717	-64.1748	42.5034	0.0229053	0.000180301	0.634361	0.513978	1	12	0.132789	0.000300621	6.62567e-05	0.0000000E+000	-100.088	0.000986213	0.00203779	0.0022639	64.1748	1.17575e-07
562.339	202.183	438.499	482.866	-65.2466	43.2599	0.0229064	0.00017288	0.645436	0.532277	1	12	0.132247	0.000273879	6.65447e-05	0.0000000E+000	-100.064	0.000867144	0.00188069	0.00207097	65.2466	2.87965e-07
501.444	212.865	483.302	528.102	-66.2295	44.0172	0.0229051	0.000179197	0.656718	0.550022	1	12	0.131796	0.000249564	6.64568e-05	0.0000000E+000	-100.064	0.000763252	0.00173294	0.00189357	66.2295	-8.7945e-08
446.859	224.633	532.997	578.399	-67.1469	44.7739	0.0229011	0.000178526	0.668228	0.567439	1	12	0.131421	0.000227215	6.66697e-05	0.0000000E+000	-100.04	0.000671457	0.0015932	0.00172891	67.1469	2.12946e-07
398.089	237.724	587.912	634.155	-67.9839	45.5367	0.0229028	0.000181248	0.680029	0.584468	1	12	0.131118	0.00020676	6.66485e-05	0.0000000E+000	-100.056	0.000591129	0.00146191	0.0015769	67.9839	-2.12168e-08
354.66	252.035	648.45	695.708	-68.7602	46.2969	0.0229006	0.000167172	0.692041	0.601217	1	12	0.13086	0.000188095	6.68096e-05	0.0000000E+000	-100.056	0.000520724	0.00133975	0.00143738	68.7602	1.61152e-07
316.316	267.712	714.586	763.088	-69.4621	47.0539	0.022896	0.000178749	0.704117	0.617454	1	12	0.130654	0.000171218	6.66946e-05	0.0000000E+000	-100.048	0.000459746	0.00122717	0.00131047	69.4621	-1.15053e-07
281.894	285.075	788.11	838.084	-70.1139	47.8094	0.0229002	0.000170937	0.716386	0.633498	1	12	0.130491	0.000155701	6.68357e-05	0.0000000E+000	-100.08	0.000405867	0.00112205	0.0011932	70.1139	1.41102e-07
251.044	304.365	869.72	921.439	-70.7121	48.5659	0.022903	0.000179364	0.728938	0.649405	1	12	0.130349	0.000141462	6.67848e-05	0.0000000E+000	-100.064	0.000358477	0.00102434	0.00108526	70.7121	-5.08991e-08
223.925	325.368	958.597	1012.31	-71.2517	49.3287	0.0229037	0.000188462	0.741449	0.664854	1	12	0.13024	0.000128657	6.67389e-05	0.0000000E+000	-100.072	0.000317503	0.000935424	0.000987839	71.2517	-4.58573e-08
199.553	348.685	1057.08	1113.1	-71.7445	50.0902	0.0228985	0.000191724	0.754491	0.680454	1	12	0.130143	0.000116919	6.66375e-05	0.0000000E+000	-100.088	0.000281425	0.000853172	0.000898389	71.7445	-1.01419e-07
177.781	374.675	1166.44	1225.14	-72.1923	50.8582	0.0229086	0.000186727	0.767487	0.695706	1	12	0.130073	0.000106169	6.66457e-05	0.0000000E+000	-100.064	0.000249622	0.000777126	0.000816233	72.1923	8.20197e-09
158.428	403.101	1286.6	1348.27	-72.6038	51.6247	0.0229142	0.000193476	0.780809	0.711014	1	12	0.130007	9.64253e-05	6.67104e-05	0.0000000E+000	-100.088	0.000221749	0.000707768	0.000741693	72.6038	6.4646e-08
141.311	434.518	1418.15	1483.23	-72.9651	52.3779	0.0229048	0.000198379	0.794182	0.726023	1	12	0.129959	8.76192e-05	6.67706e-05	0.0000000E+000	-100.12	0.000197511	0.000644625	0.000674205	72.9651	6.02001e-08
125.846	469.846	1565.29	1634.29	-73.2921	53.1334	0.0229141	0.000178915	0.807954	0.741175	1	12	0.12992	7.94963e-05	6.67851e-05	0.0000000E+000	-100.104	0.000175913	0.000586056	0.000611888	73.2921	1.4542e-08
112.19	508.393	1726.28	1799.58	-73.5901	53.8788	0.0229012	0.000178485	0.821781	0.756194	1	12	0.12989	7.21777e-05	6.67725e-05	0.0000000E+000	-100.096	0.000156985	0.000533049	0.000555685	73.5901	-1.2625e-08
100.032	551.576	1903.45	1981.75	-73.8396	54.6387	0.0229084	0.000191294	0.835873	0.771122	1	12	0.12986	6.5528e-05	6.67723e-05	0.0000000E+000	-100.064	0.000140445	0.000484665	0.000504604	73.8396	-1.91467e-10
89.116	598.748	2100.55	2184.22	-74.0902	55.4057	0.0229132	0.000195805	0.85022	0.786331	1	12	0.12984	5.94445e-05	6.68121e-05	0.0000000E+000	-100.08	0.000125502	0.000440292	0.00045783	74.0902	3.98399e-08
79.4155	652.055	2316.72	2406.73	-74.2804	56.1692	0.022905	0.000174458	0.865051	0.801554	1	12	0.129824	5.39419e-05	6.68299e-05	0.0000000E+000	-100.096	0.000112572	0.000399961	0.000415502	74.2804	1.77336e-08
70.8387	710.858	2554.5	2651.57	-74.4494	57.1704	0.0229104	1.68672e-05	0.879514	0.816302	1	13	0.130351	4.91599e-05	6.68402e-05	0.0000000E+000	-100.096	0.000101106	0.00036333	0.000377136	74.4494	1.03394e-08
63.0823	776.908	2819.48	2924.56	-74.5945	57.9508	0.0229148	2.25533e-05	0.894835	0.831687	1	13	0.130236	4.45316e-05	6.68686e-05	0.0000000E+000	-100.08	9.08338e-05	0.000329646	0.000341931	74.5945	2.84314e-08
56.2418	849.217	3108.46	3222.38	-74.7199	58.6943	0.0229157	1.54098e-05	0.910364	0.847137	1	13	0.130142	4.03869e-05	6.6856e-05	0.0000000E+000	-100.08	8.17835e-05	0.000299359	0.00031033	74.7199	-1.26523e-08
50.1444	931.106	3425.86	3550.13	-74.795	59.4512	0.0229106	2.3854e-05	0.926464	0.862735	1	13	0.13007	3.66381e-05	6.68436e-05	0.0000000E+000	-100.104	7.3877e-05	0.000271819	0.000281679	74.795	-1.23371e-08
44.6712	1020.48	3779	3914.36	-74.8883	60.2152	0.0229118	2.05031e-05	0.942792	0.878714	1	13	0.13001	3.32136e-05	6.68631e-05	0.0000000E+000	-100.096	6.66013e-05	0.000246635	0.00025547	74.8883	1.94775e-08
39.8089	1120.29	4166.26	4314.26	-74.9494	60.9777	0.0229142	1.513e-05	0.959606	0.8949	1	13	0.129956	3.01224e-05	6.68408e-05	0.0000000E+000	-100.088	6.01894e-05	0.000223839	0.00023179	74.9494	-2.22666e-08
35.4653	1232.05	4592.96	4755.33	-74.984	61.7281	0.0229131	2.12782e-05	0.977066	0.911479	1	13	0.129917	2.73202e-05	6.68906e-05	0.0000000E+000	-100.088	5.44837e-05	0.00020311	0.00021029	74.984	4.97572e-08
31.6296	1355.9	5058.85	5237.41	-74.9959	62.4524	0.0229174	1.91422e-05	0.994661	0.927996	1	13	0.129889	2.48003e-05	6.68853e-05	0.0000000E+000	-100.088	4.94305e-05	0.000184425	0.000190934	74.9959	-5.30334e-09
28.1701	1492.64	5577.22	5773.5	-75.017	63.2578	0.0229127	2.09239e-05	1.01301	0.945303	1	13	0.129855	2.24915e-05	6.68289e-05	0.0000000E+000	-100.048	4.47791e-05	0.000167317	0.000173205	75.017	-5.64458e-08
25.1044	1646.49	6144	6360.79	-74.9982	64.0139	0.0229163	1.89968e-05	1.03185	0.962717	1	13	0.129837	2.04121e-05	6.68225e-05	0.0000000E+000	-100.08	4.06946e-05	0.000151855	0.000157213	74.9982	-6.40671e-09
22.3854	1814.36	6764.48	7003.58	-74.9856	64.7004	0.0229111	1.50234e-05	1.05104	0.980505	1	13	0.129819	1.8536e-05	6.68858e-05	0.0000000E+000	-100.064	3.69898e-05	0.00013791	0.000142784	74.9856	6.33095e-08
19.9553	2005.25	7448.28	7713.49	-74.9319	65.4622	0.0229124	2.02323e-05	1.07079	0.998427	1	13	0.12981	1.68289e-05	6.68861e-05	0.0000000E+000	-100.088	3.37028e-05	0.000125186	0.000129643	74.9319	3.21205e-10
17.7961	2210.11	8196.86	8489.59	-74.9103	66.3065	0.0229125	2.02277e-05	1.09106	1.01711	1	13	0.129794	1.52886e-05	6.68991e-05	0.0000000E+000	-100.104	3.06648e-05	0.00011373	0.000117791	74.9103	1.30465e-08
15.8576	2440.13	9023.39	9347.51	-74.8679	67.0289	0.022916	1.80182e-05	1.11228	1.03648	1	13	0.129783	1.38842e-05	6.68588e-05	0.0000000E+000	-100.072	2.79268e-05	0.000103271	0.00010698	74.8679	-4.03458e-08
14.119	2697.68	9938.64	10298.3	-74.8139	67.8313	0.0229169	1.80182e-05	1.1342	1.05637	1	13	0.129778	1.26019e-05	6.69191e-05	0.0000000E+000	-100.08	2.54368e-05	9.3713e-05	9.71038e-05	74.8139	6.03238e-08
12.6008	2977.76	10929.9	11328.3	-74.7601	68.7219	0.0229152	1.94513e-05	1.1556	1.07575	1	13	0.129775	1.14558e-05	6.69072e-05	0.0000000E+000	-100.056	2.3204e-05	8.51704e-05	8.82747e-05	74.7601	-1.19161e-08
11.2249	3292.63	12030.4	12472.9	-74.6935	69.4059	0.0229136	1.67769e-05	1.17858	1.09644	1	13	0.129765	1.04037e-05	6.69229e-05	0.0000000E+000	-100.056	2.11645e-05	7.73299e-05	8.01739e-05	74.6935	1.57379e-08
10.0032	3643.76	13236	13728.4	-74.6082	70.1667	0.022913	9.78997e-06	1.20206	1.11738	1	13	0.129768	9.45252e-06	6.68543e-05	0.0000000E+000	-100.056	1.93336e-05	7.02292e-05	7.28418e-05	74.6082	-6.86301e-08
8.91838	4021.34	14558.5	15103.6	-74.5588	71.01	0.022913	2.15274e-05	1.2258	1.1389	1	13	0.129761	8.5914e-06	6.69423e-05	0.0000000E+000	-100.104	1.76282e-05	6.38193e-05	6.62092e-05	74.5588	8.80361e-08
7.93953	4446.89	16026.3	16631.8	-74.492	71.9477	0.0229129	1.82156e-05	1.25081	1.16139	1	13	0.129756	7.80169e-06	6.68668e-05	0.0000000E+000	-100.072	1.6076e-05	5.79368e-05	6.01258e-05	74.492	-7.55468e-08
7.07654	4926.58	17624.5	18300.1	-74.3827	72.506	0.0229044	1.34819e-05	1.27609	1.18361	1	13	0.129753	7.09028e-06	6.68728e-05	0.0000000E+000	-100.016	1.47108e-05	5.2627e-05	5.46444e-05	74.3827	6.04512e-09
6.31058	5548.07	19451.9	20227.6	-74.0808	73.1262	0.0228888	5.25109e-05	1.29655	1.19901	1	13	0.129744	6.41419e-06	6.68997e-05	0.0000000E+000	-100.032	1.35598e-05	4.75414e-05	4.94374e-05	74.0808	2.68334e-08
5.6205	6054.9	21303.8	22147.5	-74.1339	73.8126	0.0229136	2.56218e-05	1.32919	1.22985	1	13	0.129755	5.85869e-06	6.69469e-05	0.0000000E+000	-100.048	1.2344e-05	4.34316e-05	4.51517e-05	74.1339	4.71869e-08
5.01444	6652.72	23437.9	24363.8	-74.1537	74.5702	0.0229213	1.2453e-05	1.35419	1.25322	1	13	0.129757	5.3258e-06	6.69817e-05	0.0000000E+000	-100.072	1.12075e-05	3.94847e-05	4.10445e-05	74.1537	3.48037e-08
4.46939	7340.56	25858.1	26879.8	-74.1519	75.6855	0.0229181	-9.22596e-06	1.37713	1.27443	1	14	0.129793	4.82863e-06	6.69547e-05	0.0000000E+000	-100.064	1.01596e-05	3.57885e-05	3.72026e-05	74.1519	-2.69986e-08
3.97785	8311.07	28345.6	29538.9	-73.6586	76.6222	0.0229244	-1.8643e-05	1.41152	1.29978	1	14	0.12978	4.39352e-06	6.68921e-05	0.0000000E+000	-100.088	9.52509e-06	3.24861e-05	3.38537e-05	73.6586	-6.25831e-08
3.55114	9032.32	31133.3	32417.1	-73.8216	77.6634	0.0229266	8.6696e-06	1.43955	1.32779	1	14	0.129773	4.00323e-06	6.68631e-05	0.0000000E+000	-100.088	8.59513e-06	2.96263e-05	3.0848e-05	73.8216	-2.90129e-08
3.1604	10035	34119.1	35564.2	-73.6106	78.8262	0.0229265	4.20298e-06	1.47598	1.35847	1	14	0.129768	3.64885e-06	6.69514e-05	0.0000000E+000	-100.048	7.93396e-06	2.69756e-05	2.81182e-05	73.6106	8.83145e-08
2.81836	11159.9	37517.4	39142	-73.4343	80.1217	0.022916	-2.5196e-06	1.50519	1.38283	1	14	0.129768	3.31532e-06	6.69025e-05	0.0000000E+000	-100.048	7.2841e-06	2.44876e-05	2.5548e-05	73.4343	-4.88281e-08
2.51367	12254.2	41200.4	42984.1	-73.4359	81.5657	0.02292	6.83928e-06	1.53677	1.41187	1	14	0.129764	3.01888e-06	6.68735e-05	0.0000000E+000	-100.072	6.63238e-06	2.2299e-05	2.32644e-05	73.4359	-2.90734e-08
2.23982	13563	45116.6	47111.2	-73.2681	83.1804	0.0229187	3.62026e-06	1.57496	1.44442	1	14	0.12976	2.75433e-06	6.69662e-05	0.0000000E+000	-100.088	6.11094e-06	2.03277e-05	2.12264e-05	73.2681	9.27313e-08
1.99706	15065.6	49488.2	51730.6	-73.0683	84.9837	0.0229221	-4.16176e-07	1.61038	1.47379	1	14	0.129762	2.50841e-06	6.68651e-05	0.0000000E+000	-100.112	5.62979e-06	1.8493e-05	1.93309e-05	73.0683	-1.01126e-07
1.77961	16679.3	54347.1	56848.9	-72.9386	87.0019	0.022926	6.50705e-06	1.64558	1.50392	1	14	0.129758	2.2825e-06	6.69332e-05	0.0000000E+000	-100.08	5.16098e-06	1.68163e-05	1.75905e-05	72.9386	6.81075e-08
1.58469	18443.7	59685.1	62469.9	-72.8279	89.261	0.0229278	5.73746e-07	1.68272	1.53604	1	14	0.129757	2.07711e-06	6.69219e-05	0.0000000E+000	-100.088	4.72616e-06	1.52941e-05	1.60077e-05	72.8279	-1.12784e-08
1.41224	20378.5	65391.8	68493.6	-72.691	91.7902	0.0229314	2.3037e-06	1.72341	1.57085	1	14	0.129753	1.89438e-06	6.68815e-05	0.0000000E+000	-100.048	4.34382e-06	1.39387e-05	1.45999e-05	72.691	-4.04443e-08
1.25967	22508.7	71620.3	75074	-72.5532	94.619	0.0229329	2.75034e-06	1.76411	1.60553	1	14	0.129753	1.72833e-06	6.69676e-05	0.0000000E+000	-100.088	3.99365e-06	1.27074e-05	1.33202e-05	72.5532	8.61411e-08
1.12249	24886.3	78455.1	82307.5	-72.4007	97.786	0.022933	2.58758e-06	1.80725	1.64203	1	14	0.129752	1.57643e-06	6.68589e-05	0.0000000E+000	-100.04	3.67351e-06	1.15809e-05	1.21496e-05	72.4007	-1.08661e-07
1.00006	27559.5	85909.2	90221.5	-72.2139	101.335	0.0229319	2.78837e-06	1.85248	1.67962	1	14	0.129751	1.43814e-06	6.69857e-05	0.0000000E+000	-100.064	3.38572e-06	1.05541e-05	1.10838e-05	72.2139	1.2677e-07