File: data/DE_40_15_60.mpt
EC-Lab ASCII FILE
Nb header lines : 75

Potentio Electrochemical Impedance Spectroscopy

Run on channel : 3 (SN 20921)
User :
CE vs. WE compliance from -10 V to 10 V
Electrode connection : standard
Ewe ctrl range : min = -10.00 V, max = 10.00 V
Safety Limits :
	Do not start on E overload
Acquisition started on : 01/24/2020 09:55:40
Technique started on : 01/24/2020 09:55:41
Saved on :
	File : DE_40_15_60.mpr
	Directory : P:\Chemistry\Data\VMP3\Kyler\DOE\DE_40\2ND 60C\
	Host : 10.0.4.99
Device : VMP3 (SN 0183)
Address : USB
EC-Lab for windows v11.33 (software)
Internet server v11.32 (firmware)
Command interpretor v11.33 (firmware)
Electrode material :
Initial state :
Electrolyte :
Comments :
Electrode surface area : 0.001 cm²
Characteristic mass : 0.001 g
Equivalent Weight : 0.000 g/eq.
Density : 0.000 g/cm3
Record Analogic IN 1
Cycle Definition : Charge/Discharge alternance
External device configuration :
   device type : Thermostat
   device name : Other
   Analog OUT :
      mode : E/V
      unit : T/°C
      max : 400.000 at 5.000 V
      min : -100.000 at 0.000 V
      current : 0.000
   Analog IN 1 :
      unit : T/°C
      max : 400.000 at 5.000 V
      min : -100.000 at 0.000 V
Mode                Single sine
E (V)               0.0000
vs.                 Eoc
tE (h:m:s)          0:00:0.0000
record              0
dI                  1.000
unit dI             mA
dt (s)              0.000
fi                  1.000
unit fi             MHz
ff                  1.000
unit ff             Hz
Nd                  20
Points              per decade
spacing             Logarithmic
Va (mV)             128.0
pw                  0.50
Na                  3
corr                0
E range min (V)     -10.000
E range max (V)     10.000
I Range             Auto
Bandwidth           5
nc cycles           0
goto Ns'            0
nr cycles           0
inc. cycle          1

freq/Hz	Re(Z)/Ohm	-Im(Z)/Ohm	|Z|/Ohm	Phase(Z)/deg	time/s	<Ewe>/V	<I>/mA	Cs/µF	Cp/µF	cycle number	I Range	|Ewe|/V	|I|/A	(Q-Qo)/mA.h	Analog OUT/V	Analog IN 1/V	Re(Y)/Ohm-1	Im(Y)/Ohm-1	|Y|/Ohm-1	Phase(Y)/deg	dq/mA.h
1.00002e+06	14.1491	1.05985	14.1887	-4.28377	1.8456	-0.0615278	0.24948	0.150165	0.000837852	1	9	3.64935e-05	2.57201e-06	2.59286e-05	0.0000000E+000	-100.096	0.0702815	0.00526448	0.0704784	4.28377	2.59286e-05
891247	63.8134	16.8876	66.0101	-14.823	3.02048	-0.0611822	0.00202169	0.0105743	0.000692101	1	11	0.000389648	5.90285e-06	4.98769e-05	0.0000000E+000	-100.072	0.014645	0.00387567	0.0151492	14.823	2.39483e-05
794333	65.0697	15.5666	66.9058	-13.454	3.61549	-0.0608422	0.00206679	0.0128713	0.000696762	1	11	0.0011395	1.70314e-05	5.03282e-05	0.0000000E+000	-100.08	0.0145362	0.0034775	0.0149464	13.454	4.51318e-07
707950	67.1566	14.158	68.6328	-11.9048	4.21049	-0.060548	0.00206307	0.0158787	0.000675706	1	11	0.00237152	3.45538e-05	5.05907e-05	0.0000000E+000	-100.112	0.0142569	0.00300566	0.0145703	11.9048	2.62469e-07
630957	69.0761	12.9594	70.2812	-10.6258	4.80647	-0.0602646	0.00226437	0.0194642	0.0006618	1	11	0.00416252	5.92267e-05	5.10441e-05	0.0000000E+000	-100.072	0.0139846	0.00262365	0.0142286	10.6258	4.53439e-07
562342	70.6365	12.062	71.6589	-9.69046	5.40149	-0.0600639	0.00212644	0.0234639	0.000664811	1	11	0.00656376	9.15973e-05	5.14879e-05	0.0000000E+000	-100.08	0.0137559	0.00234898	0.013955	9.69046	4.4376e-07
501206	72.0115	11.1344	72.8672	-8.78948	5.99648	-0.0599027	0.00201237	0.0285191	0.000665897	1	11	0.00960052	0.000131754	5.14824e-05	0.0000000E+000	-100.056	0.0135624	0.00209702	0.0137236	8.78948	-5.51152e-09
446686	73.0434	10.349	73.7729	-8.06412	6.59248	-0.0597915	0.0020381	0.0344288	0.000677518	1	11	0.0132954	0.00018022	5.18311e-05	0.0000000E+000	-100.088	0.0134211	0.00190153	0.0135551	8.06412	3.48676e-07
398103	73.9566	9.53784	74.5691	-7.3486	7.18848	-0.0597562	0.00208339	0.0419155	0.000685734	1	11	0.0176531	0.000236734	5.16584e-05	0.0000000E+000	-100.04	0.0133002	0.00171527	0.0134104	7.3486	-1.72666e-07
354810	74.6454	8.75384	75.157	-6.68866	7.78348	-0.0597615	0.00193615	0.0512419	0.000695159	1	11	0.0227637	0.000302882	5.27956e-05	0.0000000E+000	-100.088	0.0132149	0.00154974	0.0133055	6.68866	1.13722e-06
316230	75.1971	8.07211	75.6291	-6.12701	8.37848	-0.059756	0.00201462	0.0623491	0.000710274	1	11	0.0285683	0.000377742	5.34452e-05	0.0000000E+000	-100.08	0.0131469	0.00141127	0.0132224	6.12701	6.49536e-07
281835	75.6214	7.40474	75.9831	-5.59249	8.97447	-0.0597404	0.0021887	0.0762634	0.000724272	1	11	0.0351771	0.00046296	5.27371e-05	0.0000000E+000	-100.088	0.0130982	0.00128255	0.0131608	5.59249	-7.08036e-07
251188	75.94	6.8278	76.2463	-5.13768	9.57048	-0.0597473	0.00213689	0.0927985	0.000744157	1	11	0.0426058	0.000558791	5.20444e-05	0.0000000E+000	-100.072	0.0130627	0.00117447	0.0131154	5.13768	-6.92743e-07
223872	76.1746	6.30438	76.435	-4.73115	10.1655	-0.0597076	0.00242636	0.112766	0.000767147	1	11	0.0509473	0.000666543	5.27427e-05	0.0000000E+000	-100.056	0.0130384	0.00107909	0.013083	4.73115	6.98264e-07
199544	76.3539	5.84451	76.5773	-4.37717	10.7615	-0.0597146	0.00227352	0.136469	0.000794934	1	11	0.0600491	0.000784163	5.18407e-05	0.0000000E+000	-100.08	0.0130206	0.000996663	0.0130587	4.37717	-9.01935e-07
177832	76.4874	5.4573	76.6818	-4.08108	11.3565	-0.0597129	0.00203923	0.163996	0.000830622	1	11	0.0699397	0.000912077	5.23295e-05	0.0000000E+000	-100.064	0.0130078	0.000928096	0.0130409	4.08108	4.88758e-07
158486	76.5939	5.13789	76.7661	-3.83763	11.9535	-0.0596819	0.00236728	0.195454	0.000875539	1	11	0.080588	0.00104979	5.40166e-05	0.0000000E+000	-100.104	0.0129974	0.000871859	0.0130266	3.83763	1.68716e-06
141256	76.6672	4.88275	76.8226	-3.64411	12.5495	-0.0597021	0.00206123	0.230754	0.000932181	1	11	0.0919318	0.00119668	5.29095e-05	0.0000000E+000	-100.112	0.0129907	0.000827345	0.013017	3.64411	-1.10711e-06
125909	76.7332	4.68734	76.8762	-3.49564	13.1445	-0.0596795	0.00222545	0.269672	0.00100255	1	11	0.104121	0.00135439	5.15175e-05	0.0000000E+000	-100.072	0.0129837	0.000793127	0.0130079	3.49564	-1.39205e-06
112205	76.7911	4.55111	76.9258	-3.39173	13.6045	-0.0597153	0.00180403	0.311667	0.00109089	1	11	0.117207	0.00152363	5.11595e-05	0.0000000E+000	-100.056	0.0129768	0.000769082	0.0129995	3.39173	-3.57992e-07
100004	76.8442	4.458	76.9734	-3.3202	14.0635	-0.0596663	0.00236301	0.356996	0.00119746	1	11	0.131446	0.00170769	5.1703e-05	0.0000000E+000	-100.096	0.0129697	0.000752416	0.0129915	3.3202	5.43541e-07
89129.3	76.8863	4.41952	77.0132	-3.28982	14.6585	-0.0596124	0.00223795	0.40404	0.00133059	1	11	0.129655	0.00168355	4.88393e-05	0.0000000E+000	-100.08	0.0129634	0.000745153	0.0129848	3.28982	-2.8637e-06
79433.3	76.9137	4.43565	77.0415	-3.30062	15.2535	-0.0595468	0.00253207	0.451711	0.00149736	1	11	0.129631	0.00168261	4.76836e-05	0.0000000E+000	-100.104	0.0129585	0.000747323	0.01298	3.30062	-1.15576e-06
70795	76.9429	4.50659	77.0747	-3.35202	15.8485	-0.0595573	0.00213469	0.498849	0.00170546	1	11	0.129611	0.00168163	4.92096e-05	0.0000000E+000	-100.064	0.0129522	0.00075862	0.0129744	3.35202	1.52609e-06
63093.8	76.9662	4.63002	77.1053	-3.44256	16.4435	-0.0595165	0.0023509	0.544817	0.00196448	1	11	0.129537	0.00168	4.92255e-05	0.0000000E+000	-100.112	0.0129459	0.000778778	0.0129693	3.44256	1.58249e-08
56237	76.9948	4.80489	77.1446	-3.57093	17.0395	-0.0595063	0.00220514	0.588999	0.00228492	1	11	0.129483	0.00167845	4.90756e-05	0.0000000E+000	-100.072	0.0129375	0.000807369	0.0129627	3.57093	-1.4988e-07
50122.5	77.0167	5.03369	77.1811	-3.73944	17.6345	-0.0595036	0.00213935	0.630813	0.0026832	1	11	0.129455	0.00167729	5.18651e-05	0.0000000E+000	-100.088	0.012929	0.000845017	0.0129565	3.73944	2.78954e-06
44666.7	77.0402	5.32691	77.2242	-3.9554	18.2295	-0.0594586	0.00233021	0.668899	0.00318277	1	11	0.129324	0.00167465	5.09206e-05	0.0000000E+000	-100.064	0.0129185	0.000893242	0.0129493	3.9554	-9.4455e-07
39814.1	77.0699	5.68122	77.279	-4.21594	18.6895	-0.0594863	0.00196787	0.703626	0.00380279	1	11	0.140712	0.00182083	5.24182e-05	0.0000000E+000	-100.056	0.0129051	0.000951302	0.0129401	4.21594	1.49766e-06
35481	77.1012	6.10843	77.3428	-4.52986	19.2845	-0.0594151	0.00252312	0.734336	0.00458051	1	11	0.130429	0.00168637	5.29554e-05	0.0000000E+000	-100.072	0.0128891	0.00102115	0.0129295	4.52986	5.37211e-07
31621.1	77.1426	6.59769	77.4242	-4.88838	19.7435	-0.0594469	0.00201372	0.76287	0.00553963	1	11	0.14042	0.00181365	5.33529e-05	0.0000000E+000	-100.072	0.0128689	0.00110062	0.0129159	4.88838	3.97463e-07
28188.1	77.1775	7.17228	77.5101	-5.30937	20.3395	-0.059411	0.00229163	0.787222	0.00674055	1	11	0.13023	0.00168017	5.49127e-05	0.0000000E+000	-100.072	0.0128462	0.00119383	0.0129016	5.30937	1.55982e-06
25116.9	77.231	7.82914	77.6268	-5.78847	20.7995	-0.0594121	0.00230002	0.809356	0.00823274	1	11	0.138509	0.0017843	5.397e-05	0.0000000E+000	-100.032	0.0128165	0.00129924	0.0128821	5.78847	-9.42752e-07
22389	77.2782	8.57891	77.753	-6.33465	21.3955	-0.0593899	0.00232946	0.828615	0.0100875	1	11	0.129856	0.00167012	5.65635e-05	0.0000000E+000	-100.064	0.0127827	0.00141905	0.0128612	6.33465	2.59357e-06
19948.8	77.3427	9.43169	77.9157	-6.9527	21.8545	-0.059394	0.00232238	0.845891	0.0123949	1	11	0.136329	0.0017497	5.66455e-05	0.0000000E+000	-100.04	0.01274	0.0015536	0.0128344	6.9527	8.19804e-08
17786.9	77.4081	10.3903	78.1023	-7.64499	22.4505	-0.0593868	0.00230877	0.861174	0.0152413	1	11	0.129341	0.00165604	5.5424e-05	0.0000000E+000	-100.096	0.0126899	0.00170334	0.0128037	7.64499	-1.22149e-06
15847.7	77.4941	11.4751	78.3391	-8.42295	22.9095	-0.0593731	0.00238911	0.875184	0.0187781	1	11	0.134136	0.00171225	5.4293e-05	0.0000000E+000	-100.064	0.0126273	0.00186981	0.012765	8.42295	-1.13106e-06
14121.9	77.5929	12.7008	78.6255	-9.29602	23.3685	-0.0593982	0.0021962	0.887354	0.0231543	1	11	0.138326	0.0017593	5.56872e-05	0.0000000E+000	-100.064	0.0125515	0.00205449	0.0127185	9.29602	1.3942e-06
12590.9	77.696	14.0593	78.9578	-10.2568	23.9655	-0.0593825	0.00235667	0.899081	0.0285059	1	11	0.129481	0.00163988	5.28981e-05	0.0000000E+000	-100.08	0.0124626	0.00225514	0.012665	10.2568	-2.78903e-06
11217.7	77.8224	15.6008	79.3707	-11.3356	24.4255	-0.0593818	0.00231436	0.909431	0.0351351	1	11	0.132261	0.00166636	5.32939e-05	0.0000000E+000	-100.12	0.0123533	0.00247643	0.0125991	11.3356	3.95757e-07
10002.2	77.9699	17.3114	79.8686	-12.5181	24.8855	-0.0593724	0.00231381	0.919159	0.0431821	1	11	0.134556	0.00168471	5.20342e-05	0.0000000E+000	-100.08	0.0122229	0.00271382	0.0125206	12.5181	-1.25967e-06
8914.93	78.1383	19.2324	80.4704	-13.8275	25.3679	-0.059363	0.00243813	0.92826	0.0530228	1	11	0.136421	0.00169529	5.16946e-05	0.0000000E+000	-100.08	0.0120668	0.00297003	0.0124269	13.8275	-3.39605e-07
7944	78.3329	21.3828	81.199	-15.2683	25.894	-0.0593583	0.00244912	0.936949	0.0649748	1	11	0.137921	0.00169856	5.23499e-05	0.0000000E+000	-100.088	0.0118807	0.00324313	0.0123154	15.2683	6.55231e-07
7082.23	78.547	23.7791	82.0675	-16.843	26.4709	-0.0593486	0.00258258	0.945051	0.0793418	1	11	0.139085	0.00169476	5.25008e-05	0.0000000E+000	-100.104	0.0116624	0.00353063	0.0121851	16.843	1.50947e-07
6307.73	78.7919	26.4715	83.1198	-18.5707	27.1055	-0.0593447	0.0023632	0.953165	0.0966755	1	11	0.139971	0.00168397	5.37237e-05	0.0000000E+000	-100.088	0.0114044	0.00383151	0.0120308	18.5707	1.22293e-06
5621.06	79.0672	29.463	84.3783	-20.437	27.8063	-0.0593378	0.00238911	0.961003	0.11717	1	11	0.140616	0.00166649	5.4096e-05	0.0000000E+000	-100.072	0.0111054	0.00413824	0.0118514	20.437	3.72246e-07
5011.6	79.3691	32.7805	85.8721	-22.4413	28.7877	-0.0593195	0.00255387	0.968785	0.141174	1	11	0.129281	0.00150551	5.63065e-05	0.0000000E+000	-100.072	0.0107633	0.00444541	0.0116452	22.4413	2.21055e-06
4466.43	79.7318	36.4884	87.6844	-24.5907	29.5477	-0.0593348	0.00243216	0.976574	0.16911	1	11	0.129529	0.00147722	5.78611e-05	0.0000000E+000	-100.08	0.0103702	0.0047458	0.0114045	24.5907	1.55459e-06
3981.27	80.1524	40.608	89.8522	-26.8683	30.3077	-0.059346	0.00229721	0.984435	0.201072	1	11	0.129645	0.00144287	5.74324e-05	0.0000000E+000	-100.024	0.00992794	0.00502984	0.0111294	26.8683	-4.28758e-07
3546.6	80.6328	45.224	92.4492	-29.2865	31.0679	-0.0593345	0.0024603	0.992292	0.23745	1	11	0.129652	0.00140241	5.79892e-05	0.0000000E+000	-100.096	0.00943421	0.0052913	0.0108168	29.2865	5.56826e-07
3161.01	81.176	50.3305	95.5129	-31.7996	31.8277	-0.0593307	0.00252367	1.00038	0.27778	1	11	0.129564	0.00135651	5.82857e-05	0.0000000E+000	-100.08	0.00889824	0.00551706	0.0104698	31.7996	2.96535e-07
2817.3	81.7951	56.016	99.1374	-34.4047	32.5879	-0.0593236	0.00247968	1.0085	0.321977	1	11	0.12941	0.00130535	5.79046e-05	0.0000000E+000	-100.088	0.00832246	0.0056995	0.010087	34.4047	-3.81105e-07
2510.8	82.505	62.3385	103.408	-37.0737	33.3477	-0.0593313	0.00240251	1.01684	0.369537	1	11	0.129208	0.0012495	5.76637e-05	0.0000000E+000	-100.104	0.00771567	0.00582975	0.00967045	37.0737	-2.40964e-07
2237.85	83.3108	69.3548	108.401	-39.7768	34.1079	-0.0593305	0.00239505	1.02544	0.419758	1	11	0.12897	0.00118975	5.86139e-05	0.0000000E+000	-100.08	0.00708981	0.00590215	0.00922501	39.7768	9.50282e-07
1995.64	84.2047	77.1191	114.183	-42.4851	34.8677	-0.0593392	0.00233951	1.03413	0.471733	1	11	0.128713	0.00112725	5.83771e-05	0.0000000E+000	-100.04	0.00645851	0.00591505	0.00875786	42.4851	-2.36834e-07
1778.29	85.2132	85.7952	120.922	-45.195	35.628	-0.0593314	0.00234826	1.04317	0.525133	1	11	0.128438	0.00106215	5.98151e-05	0.0000000E+000	-100.104	0.0058277	0.0058675	0.0082698	45.195	1.43799e-06
1585.51	86.3394	95.3878	128.66	-47.8505	36.3877	-0.0593281	0.00233	1.05235	0.578441	1	11	0.128179	0.000996263	5.99635e-05	0.0000000E+000	-100.064	0.00521583	0.00576245	0.00777244	47.8505	1.48373e-07
1411.84	87.6254	106.165	137.656	-50.4648	37.1492	-0.0593305	0.00236411	1.06183	0.631576	1	11	0.127918	0.00092926	6.11905e-05	0.0000000E+000	-100.048	0.00462422	0.0056026	0.00726447	50.4648	1.22709e-06
1258.79	89.027	118.011	147.826	-52.9694	37.9089	-0.0593316	0.00233186	1.07138	0.682793	1	11	0.127677	0.0008637	6.16565e-05	0.0000000E+000	-100.096	0.004074	0.00540036	0.00676471	52.9694	4.65931e-07
1121.79	90.5971	131.244	159.477	-55.383	38.6674	-0.059331	0.00237846	1.081	0.732135	1	11	0.127462	0.000799252	6.23357e-05	0.0000000E+000	-100.08	0.00356219	0.00516041	0.00627049	55.383	6.79185e-07
1000.32	92.3246	145.842	172.609	-57.6643	39.4267	-0.0593498	0.00213913	1.09093	0.778823	1	11	0.127266	0.000737307	6.34402e-05	0.0000000E+000	-100.072	0.0030988	0.00489506	0.00579346	57.6643	1.10456e-06
891.427	94.2629	162.176	187.581	-59.8333	40.1854	-0.05933	0.00238665	1.1009	0.822895	1	11	0.127092	0.000677532	6.44871e-05	0.0000000E+000	-100.056	0.00267894	0.00460903	0.00533103	59.8333	1.04692e-06
794.238	96.4183	180.36	204.514	-61.8715	40.9449	-0.0593398	0.00231619	1.11104	0.864095	1	11	0.126939	0.000620685	6.46569e-05	0.0000000E+000	-100.096	0.00230522	0.00431213	0.00488963	61.8715	1.69764e-07
707.509	98.798	200.647	223.652	-63.7845	41.7075	-0.0593339	0.00234658	1.12113	0.902349	1	11	0.126805	0.000566976	6.55261e-05	0.0000000E+000	-100.08	0.00197516	0.00401131	0.00447123	63.7845	8.69152e-07
631.01	101.408	222.964	244.942	-65.5431	42.4654	-0.0593334	0.00237416	1.13123	0.937331	1	11	0.1267	0.000517266	6.62641e-05	0.0000000E+000	-100.04	0.00169024	0.00371629	0.00408261	65.5431	7.38e-07
562.339	104.343	247.95	269.01	-67.1775	43.2219	-0.0593284	0.00234881	1.14145	0.969724	1	11	0.126604	0.000470628	6.65272e-05	0.0000000E+000	-100.096	0.00144187	0.00342631	0.00371733	67.1775	2.63181e-07
501.444	107.543	275.623	295.861	-68.6851	44.2292	-0.0593415	0.000220798	1.15155	0.999397	1	12	0.129841	0.000438859	6.67011e-05	0.0000000E+000	-100.056	0.00122859	0.00314877	0.00337997	68.6851	1.73873e-07
446.859	111.124	306.541	326.062	-70.0739	44.9859	-0.0593464	0.000213172	1.16188	1.02693	1	12	0.129148	0.000396084	6.68477e-05	0.0000000E+000	-100.056	0.00104522	0.0028833	0.0030669	70.0739	1.46629e-07
398.089	115.144	341.049	359.962	-71.3444	45.7487	-0.0593464	0.000223799	1.17226	1.05231	1	12	0.128588	0.000357227	6.70883e-05	0.0000000E+000	-100.056	0.000888648	0.00263211	0.00277807	71.3444	2.40516e-07
354.66	119.554	379.47	397.858	-72.5127	46.509	-0.0593408	0.000225756	1.18258	1.0758	1	12	0.128124	0.000322034	6.70407e-05	0.0000000E+000	-100.112	0.00075528	0.0023973	0.00251346	72.5127	-4.75879e-08
316.316	124.465	421.792	439.773	-73.5594	47.2659	-0.0593398	0.000210933	1.19289	1.09734	1	12	0.127752	0.000290494	6.7238e-05	0.0000000E+000	-100.064	0.000643561	0.00218093	0.0022739	73.5594	1.97311e-07
281.894	129.952	469.18	486.844	-74.5184	48.0214	-0.0593438	0.000200211	1.20336	1.11762	1	12	0.127448	0.000261785	6.70749e-05	0.0000000E+000	-100.064	0.000548283	0.00197952	0.00205405	74.5184	-1.63075e-07
251.044	136.085	522.308	539.745	-75.3965	48.7779	-0.0593502	0.000186917	1.21379	1.13663	1	12	0.127196	0.000235659	6.69637e-05	0.0000000E+000	-100.048	0.000467127	0.00179287	0.00185273	75.3965	-1.11173e-07
223.925	142.898	580.595	597.921	-76.173	49.5407	-0.0593428	0.000215628	1.22418	1.15426	1	12	0.127005	0.000212412	6.69044e-05	0.0000000E+000	-100.088	0.000399703	0.001624	0.00167246	76.173	-5.93679e-08
199.553	150.404	645.942	663.222	-76.8926	50.3022	-0.059352	0.000206529	1.23472	1.17122	1	12	0.126842	0.000191251	6.7148e-05	0.0000000E+000	-100.072	0.000341934	0.00146851	0.00150779	76.8926	2.4366e-07
177.781	158.857	718.862	736.205	-77.5388	51.0702	-0.0593521	0.000217194	1.24534	1.18736	1	12	0.12671	0.000172112	6.73707e-05	0.0000000E+000	-100.088	0.000293095	0.00132632	0.00135832	77.5388	2.22673e-07
158.428	168.354	799.697	817.226	-78.1115	51.8367	-0.0593423	0.000205149	1.25621	1.2029	1	12	0.126603	0.000154918	6.72981e-05	0.0000000E+000	-100.056	0.000252081	0.00119741	0.00122365	78.1115	-7.25558e-08
141.311	178.941	889.131	906.958	-78.621	52.5899	-0.059344	0.000223681	1.26671	1.2174	1	12	0.126521	0.0001395	6.74577e-05	0.0000000E+000	-100.056	0.000217538	0.00108091	0.00110259	78.621	1.59523e-07
125.846	190.725	989.978	1008.18	-79.0952	53.3454	-0.0593482	0.000213518	1.27749	1.23177	1	12	0.126453	0.000125427	6.74182e-05	0.0000000E+000	-100.024	0.000187642	0.000973973	0.000991883	79.0952	-3.94492e-08
112.19	203.822	1100.93	1119.64	-79.5112	54.0909	-0.0593501	0.000194893	1.28857	1.24587	1	12	0.126395	0.000112889	6.73888e-05	0.0000000E+000	-100.08	0.000162592	0.000878223	0.000893147	79.5112	-2.94078e-08
100.032	218.614	1224.4	1243.76	-79.8766	54.8507	-0.0593517	0.000186578	1.29945	1.2593	1	12	0.126357	0.000101593	6.74808e-05	0.0000000E+000	-100.064	0.00014132	0.000791497	0.000804014	79.8766	9.19489e-08
89.116	235.091	1362.5	1382.64	-80.2104	55.6178	-0.0593498	0.00021033	1.31077	1.27288	1	12	0.126316	9.13589e-05	6.76056e-05	0.0000000E+000	-100.08	0.000122976	0.000712725	0.000723256	80.2104	1.2486e-07
79.4155	253.43	1516.14	1537.17	-80.5105	56.3822	-0.0593478	0.000213555	1.32183	1.2859	1	12	0.126288	8.21563e-05	6.75558e-05	0.0000000E+000	-100.08	0.000107254	0.000641644	0.000650546	80.5105	-4.97737e-08