File: data/DE_49_8_30.mpt
EC-Lab ASCII FILE
Nb header lines : 75

Potentio Electrochemical Impedance Spectroscopy

Run on channel : 4 (SN 4192)
User :
CE vs. WE compliance from -10 V to 10 V
Electrode connection : standard
Ewe ctrl range : min = -10.00 V, max = 10.00 V
Safety Limits :
	Do not start on E overload
Acquisition started on : 01/22/2020 09:36:11
Technique started on : 01/22/2020 09:36:12
Saved on :
	File : DE_49_8_30.mpr
	Directory : P:\Chemistry\Data\VMP3\Kyler\DOE\DE_49\30C\
	Host : 10.0.4.99
Device : VMP3 (SN 0183)
Address : USB
EC-Lab for windows v11.33 (software)
Internet server v11.32 (firmware)
Command interpretor v11.33 (firmware)
Electrode material :
Initial state :
Electrolyte :
Comments :
Electrode surface area : 0.001 cm²
Characteristic mass : 0.001 g
Equivalent Weight : 0.000 g/eq.
Density : 0.000 g/cm3
Record Analogic IN 1
Cycle Definition : Charge/Discharge alternance
External device configuration :
   device type : Thermostat
   device name : Other
   Analog OUT :
      mode : E/V
      unit : T/°C
      max : 400.000 at 5.000 V
      min : -100.000 at 0.000 V
      current : 0.000
   Analog IN 1 :
      unit : T/°C
      max : 400.000 at 5.000 V
      min : -100.000 at 0.000 V
Mode                Single sine
E (V)               0.0000
vs.                 Eoc
tE (h:m:s)          0:00:0.0000
record              0
dI                  1.000
unit dI             mA
dt (s)              0.000
fi                  1.000
unit fi             MHz
ff                  1.000
unit ff             Hz
Nd                  20
Points              per decade
spacing             Logarithmic
Va (mV)             128.0
pw                  0.50
Na                  3
corr                0
E range min (V)     -10.000
E range max (V)     10.000
I Range             Auto
Bandwidth           5
nc cycles           0
goto Ns'            0
nr cycles           0
inc. cycle          1

freq/Hz	Re(Z)/Ohm	-Im(Z)/Ohm	|Z|/Ohm	Phase(Z)/deg	time/s	<Ewe>/V	<I>/mA	Cs/µF	Cp/µF	cycle number	I Range	|Ewe|/V	|I|/A	(Q-Qo)/mA.h	Analog OUT/V	Analog IN 1/V	Re(Y)/Ohm-1	Im(Y)/Ohm-1	|Y|/Ohm-1	Phase(Y)/deg	dq/mA.h
1.00002e+06	79.6847	298.381	308.838	-75.0477	1.95148	-0.00538346	0.00314245	0.000533386	0.000497877	1	11	0.00202965	6.57188e-06	9.08067e-07	0.0000000E+000	-100.161	0.000835439	0.00312831	0.00323795	75.0477	9.08067e-07
891247	89.8878	317.565	330.041	-74.1956	2.54749	-0.00515371	0.00316888	0.000562329	0.000520617	1	11	0.00259312	7.85695e-06	1.44375e-06	0.0000000E+000	-100.113	0.000825211	0.00291539	0.00302993	74.1956	5.35687e-07
794333	104.419	357.852	372.776	-73.7331	3.14248	-0.0049769	0.00352622	0.000559904	0.000515973	1	11	0.00231992	6.22336e-06	2.01264e-06	0.0000000E+000	-100.121	0.000751422	0.00257519	0.00268258	73.7331	5.68891e-07
707950	120.372	384.309	402.719	-72.6086	3.73848	-0.00483136	0.00378399	0.000584975	0.000532713	1	11	0.000633757	1.57369e-06	2.63346e-06	0.0000000E+000	-100.113	0.0007422	0.0023696	0.00248312	72.6086	6.20817e-07
630957	137.196	425.996	447.544	-72.1484	4.33448	-0.00468194	0.00383983	0.000592127	0.000536482	1	11	0.00274933	6.14315e-06	3.37541e-06	0.0000000E+000	-100.121	0.000684967	0.00212684	0.00223442	72.1484	7.41951e-07
562342	153.533	464.718	489.424	-71.7175	4.92948	-0.00461026	0.00410635	0.000609017	0.000549085	1	11	0.00796597	1.62762e-05	3.9945e-06	0.0000000E+000	-100.129	0.000640963	0.00194008	0.00204322	71.7175	6.19088e-07
501206	211.287	501.318	544.024	-67.1464	5.83048	-0.00461865	0.000563587	0.000633418	0.000537875	1	12	0.00630966	1.15981e-05	4.65549e-06	0.0000000E+000	-100.121	0.000713899	0.00169386	0.00183815	67.1464	6.60985e-07
446686	231.735	548.582	595.52	-67.0995	6.42547	-0.00458099	0.000548647	0.000649496	0.000551147	1	12	0.0103118	1.73156e-05	4.70201e-06	0.0000000E+000	-100.089	0.000653432	0.00154685	0.00167921	67.0995	4.65269e-08
398103	257.68	601.419	654.296	-66.8071	7.02048	-0.00450666	0.000573646	0.000664733	0.000561633	1	12	0.015453	2.36177e-05	4.85526e-06	0.0000000E+000	-100.153	0.00060191	0.00140484	0.00152836	66.8071	1.53244e-07
354810	283.486	659.771	718.096	-66.7481	7.61549	-0.00450683	0.000559508	0.000679879	0.000573922	1	12	0.0217894	3.03434e-05	4.94114e-06	0.0000000E+000	-100.145	0.000549752	0.00127946	0.00139257	66.7481	8.58802e-08
316230	313.86	721.904	787.181	-66.5022	8.21048	-0.00447317	0.00058881	0.000697168	0.000586338	1	12	0.0295034	3.74798e-05	5.00658e-06	0.0000000E+000	-100.137	0.000506509	0.00116501	0.00127036	66.5022	6.54487e-08
281835	347.174	788.185	861.258	-66.2278	8.80549	-0.00447465	0.000574392	0.00071647	0.00060005	1	12	0.0387586	4.50023e-05	5.19383e-06	0.0000000E+000	-100.121	0.000468038	0.00106258	0.00116109	66.2278	1.8725e-07
251188	384.398	857.29	939.526	-65.8491	9.40047	-0.00448678	0.000572045	0.000739084	0.000615364	1	12	0.0496342	5.2829e-05	5.2628e-06	0.0000000E+000	-100.153	0.000435476	0.000971204	0.00106437	65.8491	6.89691e-08
223872	426.008	929.719	1022.67	-65.3822	9.99548	-0.00445047	0.000606488	0.000764661	0.000631973	1	12	0.0624752	6.10901e-05	5.22684e-06	0.0000000E+000	-100.121	0.000407328	0.000888951	0.000977829	65.3822	-3.59614e-08
199544	468.542	1006.17	1109.92	-65.0301	10.5925	-0.00449374	0.000504556	0.000792703	0.00065144	1	12	0.0773142	6.96577e-05	5.1477e-06	0.0000000E+000	-100.073	0.000380337	0.000816755	0.000900969	65.0301	-7.91374e-08
177832	514.529	1087.5	1203.08	-64.6798	11.1875	-0.00453216	0.000506065	0.000822963	0.000672437	1	12	0.0945079	7.85549e-05	5.06677e-06	0.0000000E+000	-100.153	0.000355485	0.000751348	0.0008312	64.6798	-8.09393e-08
158486	563.624	1176.12	1304.19	-64.3951	11.7825	-0.00450509	0.00051605	0.000853844	0.000694376	1	12	0.11443	8.77402e-05	5.06073e-06	0.0000000E+000	-100.113	0.000331364	0.000691458	0.000766757	64.3951	-6.03637e-09
141256	614.268	1270.18	1410.92	-64.1913	12.2425	-0.00449321	0.000554759	0.000887048	0.000718913	1	12	0.137001	9.71006e-05	5.10334e-06	0.0000000E+000	-100.137	0.00030857	0.000638062	0.000708759	64.1913	4.26091e-08
125909	667.301	1370.94	1524.72	-64.0456	12.8395	-0.00445695	0.000525419	0.000922028	0.000745421	1	12	0.131117	8.59944e-05	5.20319e-06	0.0000000E+000	-100.105	0.00028704	0.000589711	0.000655859	64.0456	9.98496e-08
112205	722.996	1483.2	1650.03	-64.0128	13.4345	-0.00435882	0.000511001	0.00095633	0.000772721	1	12	0.130784	7.92613e-05	5.1262e-06	0.0000000E+000	-100.089	0.000265552	0.000544772	0.000606048	64.0128	-7.69858e-08
100004	781.533	1602.47	1782.89	-64.0013	14.0305	-0.00445283	0.000497477	0.000993146	0.000802312	1	12	0.130423	7.31526e-05	5.02353e-06	0.0000000E+000	-100.04	0.000245865	0.000504126	0.000560886	64.0013	-1.02676e-07
89129.3	842.459	1734.72	1928.46	-64.0966	14.6255	-0.00446624	0.000521209	0.00102937	0.000832923	1	12	0.130354	6.75948e-05	5.21251e-06	0.0000000E+000	-100.016	0.00022653	0.00046645	0.000518547	64.0966	1.88983e-07
79433.3	905.107	1876.23	2083.14	-64.247	15.2215	-0.00447248	0.000541346	0.0010679	0.000866299	1	12	0.130021	6.24159e-05	5.2e-06	0.0000000E+000	-100.177	0.000208575	0.000432365	0.000480045	64.247	-1.25102e-08
70795	972.219	2035.08	2255.38	-64.4647	15.8175	-0.00439698	0.000539203	0.00110468	0.000899411	1	12	0.129822	5.7561e-05	5.31958e-06	0.0000000E+000	-100.113	0.000191128	0.000400074	0.000443384	64.4647	1.19578e-07
63093.8	1040.15	2207.01	2439.84	-64.7659	16.4135	-0.00443835	0.000522419	0.00114295	0.000935226	1	12	0.129504	5.30789e-05	5.47996e-06	0.0000000E+000	-100.097	0.000174732	0.000370752	0.000409864	64.7659	1.60384e-07
56237	1113.09	2396.49	2642.37	-65.0868	16.8735	-0.00443792	0.000535794	0.00118092	0.000971372	1	12	0.140598	5.32091e-05	5.52311e-06	0.0000000E+000	-100.081	0.000159419	0.000343232	0.000378448	65.0868	4.31495e-08
50122.5	1191.34	2607.06	2866.37	-65.4413	17.4685	-0.00439536	0.000520538	0.00121797	0.00100757	1	12	0.130322	4.54659e-05	5.55029e-06	0.0000000E+000	-100.129	0.000145001	0.000317313	0.000348874	65.4413	2.71801e-08
44666.7	1275.4	2839.35	3112.64	-65.811	17.9285	-0.00447002	0.000458991	0.00125492	0.00104423	1	12	0.137417	4.4148e-05	5.58352e-06	0.0000000E+000	-100.081	0.00013164	0.000293063	0.00032127	65.811	3.32335e-08
39814.1	1367.4	3096.51	3384.99	-66.1741	18.5235	-0.00438166	0.000507535	0.00129095	0.00108029	1	12	0.129527	3.8265e-05	5.6733e-06	0.0000000E+000	-100.121	0.000119338	0.000270245	0.000295422	66.1741	8.97757e-08
35481	1464.01	3381.57	3684.88	-66.5904	18.9835	-0.00442071	0.000522885	0.00132649	0.00111711	1	12	0.133479	3.62233e-05	5.72549e-06	0.0000000E+000	-100.105	0.000107819	0.000249041	0.000271379	66.5904	5.21925e-08
31621.1	1569.43	3690.8	4010.63	-66.9635	19.4435	-0.0043975	0.000537061	0.00136371	0.00115489	1	12	0.136422	3.40151e-05	5.80169e-06	0.0000000E+000	-100.161	9.75702e-05	0.000229454	0.000249338	66.9635	7.61923e-08
28188.1	1686.24	4037.4	4375.39	-67.3319	19.9025	-0.00441724	0.000517017	0.00139847	0.00119076	1	12	0.138479	3.16496e-05	5.84663e-06	0.0000000E+000	-100.097	8.80819e-05	0.000210896	0.000228551	67.3319	4.49489e-08
25116.9	1846.81	4429.73	4799.29	-67.3681	20.5285	-0.00430658	3.95906e-05	0.00143046	0.00121864	1	13	0.136614	2.84655e-05	5.85255e-06	0.0000000E+000	-100.161	8.01805e-05	0.000192319	0.000208364	67.3681	5.91537e-09
22389	1988.6	4850.87	5242.66	-67.709	21.1245	-0.00431788	3.92476e-05	0.00146543	0.00125459	1	13	0.130493	2.48906e-05	5.83024e-06	0.0000000E+000	-100.129	7.23509e-05	0.000176489	0.000190743	67.709	-2.23116e-08
19948.8	2145.46	5319.17	5735.56	-68.0335	21.7205	-0.00431469	3.89924e-05	0.00149989	0.00129002	1	13	0.129304	2.25442e-05	5.849e-06	0.0000000E+000	-100.113	6.52184e-05	0.000161694	0.000174351	68.0335	1.8762e-08
17786.9	2321.56	5832.68	6277.72	-68.2962	22.1805	-0.00431348	3.79234e-05	0.00153409	0.00132429	1	13	0.134436	2.14149e-05	5.84898e-06	0.0000000E+000	-100.04	5.89082e-05	0.000148001	0.000159294	68.2962	-1.77283e-11
15847.7	2516.8	6400.92	6877.94	-68.5356	22.6405	-0.00431406	3.97299e-05	0.00156896	0.00135888	1	13	0.13564	1.9721e-05	5.87137e-06	0.0000000E+000	-100.177	5.32025e-05	0.000135309	0.000145392	68.5356	2.23882e-08
14121.9	2734.35	7026.13	7539.44	-68.7356	23.0995	-0.00432105	3.84951e-05	0.00160403	0.00139305	1	13	0.134281	1.78105e-05	5.89086e-06	0.0000000E+000	-100.161	4.81034e-05	0.000123606	0.000132636	68.7356	1.94946e-08
12590.9	2984.06	7715.38	8272.35	-68.8551	23.5595	-0.00431538	3.84764e-05	0.00163834	0.00142515	1	13	0.131682	1.59183e-05	5.89114e-06	0.0000000E+000	-100.121	4.36064e-05	0.000112746	0.000120885	68.8551	2.78066e-10
11217.7	3263.86	8475.98	9082.67	-68.9397	24.0195	-0.00430785	3.93648e-05	0.00167389	0.00145773	1	13	0.128693	1.41691e-05	5.88955e-06	0.0000000E+000	-100.113	3.95644e-05	0.000102745	0.0001101	68.9397	-1.59361e-09
10002.2	3575.54	9295.3	9959.28	-68.9602	24.4785	-0.00431428	4.27916e-05	0.00171183	0.00149118	1	13	0.125847	1.26362e-05	5.9031e-06	0.0000000E+000	-100.145	3.60485e-05	9.37147e-05	0.000100409	68.9602	1.35526e-08
8914.93	3934.62	10203.9	10936.2	-68.9133	24.9609	-0.00431807	4.51941e-05	0.0017496	0.00152313	1	13	0.123204	1.12657e-05	5.91729e-06	0.0000000E+000	-100.089	3.28982e-05	8.53166e-05	9.14397e-05	68.9133	1.41924e-08
7944	4353.77	11206.8	12022.8	-68.7691	25.487	-0.00430543	5.11185e-05	0.00178773	0.00155329	1	13	0.120907	1.00565e-05	5.91936e-06	0.0000000E+000	-100.201	3.01202e-05	7.75304e-05	8.31756e-05	68.7691	2.06546e-09
7082.23	4833.16	12299	13214.6	-68.5467	26.0639	-0.00429717	5.44448e-05	0.00182717	0.00158275	1	13	0.118982	9.00379e-06	5.93558e-06	0.0000000E+000	-100.145	2.76772e-05	7.04308e-05	7.56738e-05	68.5467	1.6217e-08
6307.73	5398.07	13512.2	14550.6	-68.2235	26.6985	-0.00427972	5.34316e-05	0.00186733	0.00161032	1	13	0.117366	8.06606e-06	5.93801e-06	0.0000000E+000	-100.113	2.54964e-05	6.38214e-05	6.87258e-05	68.2235	2.43365e-09
5621.06	6052.93	14828.2	16016	-67.7945	27.3993	-0.00426629	5.27835e-05	0.00190948	0.00163674	1	13	0.116036	7.24497e-06	5.95222e-06	0.0000000E+000	-100.137	2.3597e-05	5.78068e-05	6.24375e-05	67.7945	1.42117e-08
5011.6	6816.39	16251.5	17623.1	-67.2453	28.3807	-0.00425764	5.0489e-05	0.00195411	0.00166177	1	13	0.126835	7.19708e-06	5.96854e-06	0.0000000E+000	-100.056	2.19476e-05	5.23272e-05	5.67436e-05	67.2453	1.63176e-08
4466.43	7700.19	17780.1	19375.9	-66.5836	29.1407	-0.00425804	5.4009e-05	0.00200413	0.0016876	1	13	0.125873	6.4964e-06	5.97661e-06	0.0000000E+000	-100.073	2.05106e-05	4.73599e-05	5.16105e-05	66.5836	8.06525e-09
3981.27	8722.84	19419.8	21288.9	-65.8117	29.9007	-0.00426661	5.126e-05	0.00205852	0.00171292	1	13	0.125085	5.87562e-06	5.98965e-06	0.0000000E+000	-100.081	1.92466e-05	4.28489e-05	4.69729e-05	65.8117	1.30479e-08
3546.6	9930.28	21168.2	23381.7	-64.8681	30.661	-0.00426767	5.20161e-05	0.00211995	0.00173757	1	13	0.124433	5.32184e-06	5.9996e-06	0.0000000E+000	-100.081	1.8164e-05	3.87198e-05	4.27686e-05	64.8681	9.94662e-09
3161.01	11345.9	23029.4	25672.6	-63.7719	31.4207	-0.00425923	4.9688e-05	0.00218631	0.00175928	1	13	0.123916	4.82679e-06	6.00879e-06	0.0000000E+000	-100.016	1.72147e-05	3.49415e-05	3.8952e-05	63.7719	9.18743e-09
2817.3	12978.9	24969	28140.7	-62.5345	32.1809	-0.00425835	5.08111e-05	0.00226249	0.00178122	1	13	0.12349	4.38829e-06	6.02329e-06	0.0000000E+000	-100.121	1.63895e-05	3.15304e-05	3.55357e-05	62.5345	1.45009e-08
2510.8	14851.4	26930.9	30754.4	-61.1249	32.9407	-0.00425317	5.20421e-05	0.00235373	0.00180486	1	13	0.12315	4.00431e-06	6.03572e-06	0.0000000E+000	-100.105	1.57019e-05	2.84731e-05	3.25157e-05	61.1249	1.24315e-08
2237.85	16997.4	28974.7	33592.3	-59.6029	33.7	-0.00425833	4.96992e-05	0.00245454	0.00182611	1	13	0.122875	3.65782e-06	6.04336e-06	0.0000000E+000	-100.129	1.50627e-05	2.56767e-05	2.97687e-05	59.6029	7.64505e-09
1995.64	19978.8	30855.2	36758.6	-57.0768	34.7107	-0.00426678	5.31421e-06	0.0025847	0.00182116	1	14	0.129695	3.52829e-06	6.04812e-06	0.0000000E+000	-100.064	1.47861e-05	2.28355e-05	2.72045e-05	57.0768	4.75868e-09
1778.29	22749.2	32782.3	39902.4	-55.2414	35.4709	-0.00426421	4.89812e-06	0.00273009	0.00184271	1	14	0.12825	3.21409e-06	6.05154e-06	0.0000000E+000	-100.097	1.42879e-05	2.05892e-05	2.50611e-05	55.2414	3.41249e-09
1585.51	25852.6	34569	43166.8	-53.2088	36.2307	-0.00427004	4.80201e-06	0.00290379	0.00186225	1	14	0.127052	2.94329e-06	6.05127e-06	0.0000000E+000	-100.105	1.38741e-05	1.85518e-05	2.31659e-05	53.2088	-2.69165e-10
1411.84	29279.2	36190	46550.9	-51.0257	36.9912	-0.00426585	4.79287e-06	0.00311492	0.00188264	1	14	0.126053	2.70785e-06	6.0513e-06	0.0000000E+000	-100.129	1.35115e-05	1.67006e-05	2.14819e-05	51.0257	3.5133e-11
1258.79	32937.1	37523.7	49928.7	-48.7243	37.751	-0.00426273	3.83183e-06	0.00336947	0.00190314	1	14	0.125231	2.50819e-06	6.05399e-06	0.0000000E+000	-100.081	1.32125e-05	1.50523e-05	2.00285e-05	48.7243	2.69114e-09
1121.79	36832.5	38559	53323.8	-46.3119	38.5094	-0.00427338	5.0374e-06	0.00367944	0.00192393	1	14	0.124565	2.33602e-06	6.05351e-06	0.0000000E+000	-100.081	1.29536e-05	1.35607e-05	1.87534e-05	46.3119	-4.80828e-10
1000.32	40854.7	39220.6	56633.6	-43.831	39.2687	-0.00427258	5.28994e-06	0.00405664	0.00194557	1	14	0.124017	2.18982e-06	6.05299e-06	0.0000000E+000	-100.064	1.27378e-05	1.22283e-05	1.76574e-05	43.831	-5.1917e-10
891.427	44946	39508.9	59842.2	-41.3165	40.0274	-0.00426665	5.14616e-06	0.00451897	0.00196976	1	14	0.123584	2.06516e-06	6.05267e-06	0.0000000E+000	-100.097	1.25509e-05	1.10326e-05	1.67106e-05	41.3165	-3.24408e-10
794.238	49056.8	39407	62924.4	-38.7747	40.787	-0.00425813	4.18735e-06	0.00508506	0.00199437	1	14	0.123223	1.95828e-06	6.0537e-06	0.0000000E+000	-100.056	1.23897e-05	9.95258e-06	1.58921e-05	38.7747	1.03376e-09
707.509	52996.1	38969.6	65781.6	-36.3281	41.5494	-0.00426249	4.94706e-06	0.00577247	0.00202584	1	14	0.122943	1.86895e-06	6.05463e-06	0.0000000E+000	-100.097	1.22472e-05	9.00569e-06	1.52018e-05	36.3281	9.2291e-10
631.01	56784.9	38185.1	68429.7	-33.9189	42.3074	-0.00426518	4.38813e-06	0.00660527	0.00205678	1	14	0.122714	1.79328e-06	6.05511e-06	0.0000000E+000	-100.129	1.21267e-05	8.15462e-06	1.46135e-05	33.9189	4.84388e-10
562.339	60346.1	37148.3	70863.6	-31.6159	43.0639	-0.00426747	4.08082e-06	0.00761873	0.0020937	1	14	0.122527	1.72905e-06	6.05736e-06	0.0000000E+000	-100.105	1.20172e-05	7.39764e-06	1.41116e-05	31.6159	2.25102e-09
501.444	63555.5	35924.2	73005.8	-29.4769	43.8212	-0.00427785	5.03441e-06	0.00883508	0.00213929	1	14	0.122383	1.67635e-06	6.05707e-06	0.0000000E+000	-100.081	1.19244e-05	6.74019e-06	1.36975e-05	29.4769	-2.87495e-10
446.859	66533	34511.5	74951.2	-27.4164	44.5779	-0.00427481	4.68948e-06	0.0103201	0.00218805	1	14	0.122266	1.63127e-06	6.05977e-06	0.0000000E+000	-100.048	1.18435e-05	6.14338e-06	1.3342e-05	27.4164	2.70196e-09
398.089	69184.5	33147.7	76715.4	-25.6	45.3407	-0.00426816	4.51738e-06	0.0120611	0.00225179	1	14	0.122171	1.59252e-06	6.06095e-06	0.0000000E+000	-100.073	1.17556e-05	5.63232e-06	1.30352e-05	25.6	1.17569e-09
354.66	71568	31731.7	78287.2	-23.9115	46.1009	-0.00427681	4.60305e-06	0.0141421	0.00232338	1	14	0.122099	1.55963e-06	6.06242e-06	0.0000000E+000	-100.073	1.16772e-05	5.17741e-06	1.27735e-05	23.9115	1.47164e-09
316.316	73607.5	30429.3	79649.2	-22.4602	46.8579	-0.00427472	5.07966e-06	0.0165351	0.00241339	1	14	0.122035	1.53216e-06	6.06283e-06	0.0000000E+000	-100.048	1.16027e-05	4.79654e-06	1.25551e-05	22.4602	4.11916e-10
281.894	75332.9	29189	80790.1	-21.1797	47.6134	-0.00427185	5.35624e-06	0.0193426	0.00252485	1	14	0.121984	1.50988e-06	6.06363e-06	0.0000000E+000	-100.064	1.15417e-05	4.472e-06	1.23777e-05	21.1797	7.96856e-10
251.044	77074.9	28070.2	82027.3	-20.0113	48.3699	-0.00427079	4.77552e-06	0.0225852	0.00264483	1	14	0.12195	1.4867e-06	6.06301e-06	0.0000000E+000	-100.073	1.1455e-05	4.17185e-06	1.21911e-05	20.0113	-6.23603e-10
223.925	78541.1	27102.1	83085.7	-19.0379	49.1327	-0.00427204	4.91818e-06	0.026225	0.00279041	1	14	0.121915	1.46734e-06	6.06267e-06	0.0000000E+000	-100.097	1.13774e-05	3.926e-06	1.20358e-05	19.0379	-3.41158e-10
199.553	79824.1	26373.7	84068.2	-18.2834	49.8942	-0.00427692	4.79079e-06	0.0302407	0.00297625	1	14	0.121891	1.44991e-06	6.0636e-06	0.0000000E+000	-100.089	1.12946e-05	3.73171e-06	1.18951e-05	18.2834	9.35914e-10
177.781	81102.8	25782.4	85102.2	-17.6353	50.6622	-0.00428082	4.3708e-06	0.0347225	0.00318695	1	14	0.121874	1.43209e-06	6.06566e-06	0.0000000E+000	-100.081	1.11983e-05	3.55993e-06	1.17506e-05	17.6353	2.05439e-09
158.428	82180.7	25463.8	86035.2	-17.2157	51.4287	-0.00427877	4.46113e-06	0.0394516	0.00345587	1	14	0.121849	1.41627e-06	6.06601e-06	0.0000000E+000	-100.073	1.11024e-05	3.44009e-06	1.16231e-05	17.2157	3.57459e-10
141.311	83225.8	25406.2	87017.3	-16.9758	52.1819	-0.00427576	4.51011e-06	0.0443305	0.00377896	1	14	0.121836	1.40013e-06	6.06834e-06	0.0000000E+000	-100.056	1.09912e-05	3.35528e-06	1.1492e-05	16.9758	2.32487e-09
125.846	84328.2	25336.5	88052.2	-16.723	52.9364	-0.00426436	4.27749e-06	0.0499154	0.00413284	1	14	0.121823	1.38353e-06	6.06774e-06	0.0000000E+000	-100.137	1.08766e-05	3.26789e-06	1.13569e-05	16.723	-5.99458e-10
112.19	85289.8	25517.3	89025.2	-16.6563	53.6818	-0.00427114	5.37188e-06	0.0555944	0.00456747	1	14	0.121823	1.36841e-06	6.06796e-06	0.0000000E+000	-100.121	1.07615e-05	3.21966e-06	1.12328e-05	16.6563	2.18597e-10
100.032	86353.1	25952.8	90168.8	-16.7278	54.4417	-0.0042758	4.19945e-06	0.0613051	0.00507871	1	14	0.121805	1.35086e-06	6.06978e-06	0.0000000E+000	-100.064	1.0621e-05	3.19207e-06	1.10903e-05	16.7278	1.82104e-09
89.116	87496.9	26598.5	91450.5	-16.9089	55.2087	-0.00426458	4.64924e-06	0.067144	0.00568002	1	14	0.1218	1.33187e-06	6.07227e-06	0.0000000E+000	-100.113	1.04621e-05	3.18043e-06	1.09349e-05	16.9089	2.49352e-09
79.4155	88640.1	27327.7	92757	-17.1345	55.9732	-0.00427288	4.37582e-06	0.073335	0.00636538	1	14	0.121794	1.31304e-06	6.0719e-06	0.0000000E+000	-100.081	1.03024e-05	3.17621e-06	1.07809e-05	17.1345	-3.77202e-10
70.8387	89835.5	28320.9	94193.9	-17.4976	56.7244	-0.00427366	5.09958e-06	0.0793309	0.00717151	1	14	0.121788	1.29295e-06	6.07346e-06	0.0000000E+000	-100.064	1.01252e-05	3.19199e-06	1.06164e-05	17.4976	1.56258e-09
63.0823	91148.3	29568.4	95824.4	-17.973	57.5048	-0.00427276	4.88223e-06	0.0853266	0.00812436	1	14	0.121789	1.27097e-06	6.0751e-06	0.0000000E+000	-100.081	9.92651e-06	3.22015e-06	1.04358e-05	17.973	1.64313e-09
56.2418	92555.8	30860.1	97565	-18.4395	58.2483	-0.00427687	5.05711e-06	0.0916988	0.00917424	1	14	0.121786	1.24826e-06	6.0759e-06	0.0000000E+000	-100.024	9.72335e-06	3.24197e-06	1.02496e-05	18.4395	7.99017e-10
50.1444	94062.2	32309.7	99456.6	-18.9572	59.0052	-0.0042792	4.39333e-06	0.0982347	0.0103672	1	14	0.121774	1.22439e-06	6.0769e-06	0.0000000E+000	-100.161	9.50928e-06	3.26637e-06	1.00546e-05	18.9572	9.9794e-10
44.6712	95705.2	34001.1	101566	-19.5585	59.7692	-0.00427278	4.54251e-06	0.104785	0.0117433	1	14	0.121776	1.19899e-06	6.07845e-06	0.0000000E+000	-100.081	9.27775e-06	3.29609e-06	9.84586e-06	19.5585	1.55011e-09
39.8089	97418.1	35828.5	103798	-20.1925	60.5317	-0.00428016	5.25137e-06	0.111586	0.0132951	1	14	0.121772	1.17316e-06	6.07805e-06	0.0000000E+000	-100.113	9.04199e-06	3.32547e-06	9.63412e-06	20.1925	-3.97216e-10
35.4653	99277.9	37813	106235	-20.8509	61.2821	-0.00428568	4.51773e-06	0.118679	0.0150356	1	14	0.121771	1.14624e-06	6.0814e-06	0.0000000E+000	-100.113	8.79661e-06	3.35046e-06	9.41308e-06	20.8509	3.35212e-09
31.6296	101261	39978.7	108868	-21.5444	62.0064	-0.00428837	5.05674e-06	0.125863	0.016973	1	14	0.12177	1.11851e-06	6.0828e-06	0.0000000E+000	-100.121	8.54371e-06	3.37312e-06	9.18547e-06	21.5444	1.39418e-09
28.1701	103386	42275.8	111696	-22.2402	62.8118	-0.00428417	5.18376e-06	0.133641	0.0191448	1	14	0.121768	1.09018e-06	6.08112e-06	0.0000000E+000	-100.064	8.28685e-06	3.38859e-06	8.9529e-06	22.2402	-1.67662e-09
25.1044	105668	44749.7	114753	-22.9524	63.5679	-0.00428093	5.31432e-06	0.14167	0.0215443	1	14	0.12176	1.06106e-06	6.08153e-06	0.0000000E+000	-100.089	8.02446e-06	3.39831e-06	8.71438e-06	22.9524	4.06206e-10
22.3854	108063	47497.8	118041	-23.7274	64.2544	-0.00429195	4.70305e-06	0.149686	0.0242363	1	14	0.12176	1.03151e-06	6.08522e-06	0.0000000E+000	-100.04	7.75556e-06	3.40887e-06	8.47166e-06	23.7274	3.69321e-09
19.9553	110665	50272.8	121549	-24.4312	65.0162	-0.00428166	4.85801e-06	0.158646	0.0271389	1	14	0.121761	1.00174e-06	6.08525e-06	0.0000000E+000	-100.073	7.49046e-06	3.40275e-06	8.22713e-06	24.4312	2.95177e-11
17.7961	113347	53295.7	125252	-25.1829	65.8606	-0.00427833	5.9619e-06	0.167804	0.0303822	1	14	0.121767	9.7218e-07	6.08698e-06	0.0000000E+000	-100.073	7.22509e-06	3.39723e-06	7.98392e-06	25.1829	1.73449e-09
15.8576	116184	56609	129241	-25.977	66.5829	-0.00428074	3.82805e-06	0.177296	0.0340146	1	14	0.121755	9.42078e-07	6.08738e-06	0.0000000E+000	-100.129	6.95574e-06	3.38908e-06	7.73746e-06	25.977	3.96075e-10
14.119	119180	60132.8	133491	-26.7734	67.3852	-0.00428058	4.8256e-06	0.187459	0.0380385	1	14	0.121755	9.12085e-07	6.09131e-06	0.0000000E+000	-100.121	6.68805e-06	3.37447e-06	7.49113e-06	26.7734	3.929e-09
12.6008	122414	63791.9	138038	-27.5248	68.2759	-0.00427539	5.70236e-06	0.197996	0.0422853	1	14	0.12176	8.82077e-07	6.09012e-06	0.0000000E+000	-100.064	6.42439e-06	3.34786e-06	7.24438e-06	27.5248	-1.19386e-09
11.2249	125808	67874	142949	-28.3471	68.9599	-0.00428177	4.45366e-06	0.208899	0.0470955	1	14	0.121747	8.51679e-07	6.0949e-06	0.0000000E+000	-100.105	6.15665e-06	3.32155e-06	6.9955e-06	28.3471	4.78676e-09
10.0032	129386	72266	148199	-29.1848	69.7207	-0.00427629	4.80399e-06	0.220165	0.0523508	1	14	0.121754	8.21558e-07	6.0893e-06	0.0000000E+000	-100.121	5.89107e-06	3.29035e-06	6.74768e-06	29.1848	-5.59776e-09
8.91838	133048	76781.8	153614	-29.9892	70.565	-0.00427503	5.03308e-06	0.232421	0.0580674	1	14	0.12176	7.92635e-07	6.09678e-06	0.0000000E+000	-100.056	5.6383e-06	3.25385e-06	6.50984e-06	29.9892	7.47258e-09
7.93953	136952	81808.1	159525	-30.852	71.5037	-0.00426989	4.5398e-06	0.245035	0.0644409	1	14	0.121757	7.63242e-07	6.09111e-06	0.0000000E+000	-100.064	5.38156e-06	3.21467e-06	6.26859e-06	30.852	-5.66944e-09
7.07654	141043	87120.8	165781	-31.7032	72.062	-0.00428949	5.20517e-06	0.258153	0.071294	1	14	0.12175	7.34402e-07	6.09136e-06	0.0000000E+000	-100.04	5.13197e-06	3.16996e-06	6.03206e-06	31.7032	2.55669e-10
6.31058	145484	92721.8	172520	-32.5107	72.6822	-0.0042904	2.65468e-06	0.272	0.0785698	1	14	0.121755	7.05744e-07	6.09191e-06	0.0000000E+000	-100.089	4.88809e-06	3.11534e-06	5.79644e-06	32.5107	5.42038e-10
5.6205	150023	99209.6	179859	-33.4765	73.3686	-0.00428867	2.91785e-06	0.285425	0.0868426	1	14	0.121746	6.76898e-07	6.09573e-06	0.0000000E+000	-100.081	4.63758e-06	3.06682e-06	5.5599e-06	33.4765	3.82114e-09
5.01444	154837	106180	187746	-34.4403	74.1262	-0.00429527	5.47113e-06	0.298921	0.0956083	1	14	0.121742	6.48439e-07	6.10349e-06	0.0000000E+000	-100.064	4.39271e-06	3.0123e-06	5.32634e-06	34.4403	7.7672e-09
4.46939	159863	112901	195712	-35.2311	74.9675	-0.00428771	7.20808e-06	0.315408	0.104963	1	14	0.121755	6.22117e-07	6.1052e-06	0.0000000E+000	-100.016	4.17365e-06	2.94758e-06	5.10956e-06	35.2311	1.71035e-09
3.97785	165236	121201	204921	-36.26	75.9042	-0.00426537	5.13904e-06	0.330116	0.115479	1	14	0.121751	5.94137e-07	6.0966e-06	0.0000000E+000	-100.081	3.93489e-06	2.88624e-06	4.87993e-06	36.26	-8.60535e-09
3.55114	170915	129306	214318	-37.1095	76.9454	-0.00427658	3.84993e-06	0.346604	0.12617	1	14	0.121754	5.68101e-07	6.09997e-06	0.0000000E+000	-100.121	3.72104e-06	2.81517e-06	4.66597e-06	37.1095	3.37336e-09
3.1604	176842	138959	224905	-38.1596	78.1072	-0.00428434	4.41351e-06	0.362404	0.138345	1	14	0.121751	5.41345e-07	6.11225e-06	0.0000000E+000	-100.097	3.49611e-06	2.74717e-06	4.44631e-06	38.1596	1.22784e-08
2.81836	183198	148922	236092	-39.1078	79.4026	-0.00427468	6.19105e-06	0.379196	0.150876	1	14	0.12176	5.1573e-07	6.102e-06	0.0000000E+000	-100.113	3.28669e-06	2.67176e-06	4.23564e-06	39.1078	-1.02527e-08
2.51367	189870	159612	248046	-40.0517	80.8467	-0.00427561	3.30016e-06	0.396685	0.164253	1	14	0.121757	4.90866e-07	6.10612e-06	0.0000000E+000	-100.097	3.08598e-06	2.59419e-06	4.03152e-06	40.0517	4.11943e-09
2.23982	197019	171721	261351	-41.0752	82.4614	-0.00427353	5.15608e-06	0.413794	0.178641	1	14	0.121758	4.65878e-07	6.11839e-06	0.0000000E+000	-100.121	2.88442e-06	2.51405e-06	3.82627e-06	41.0752	1.22706e-08
1.99706	204440	184411	275324	-42.0513	84.2657	-0.00426783	4.53518e-06	0.432158	0.193878	1	14	0.121753	4.42216e-07	6.10296e-06	0.0000000E+000	-100.089	2.69699e-06	2.43276e-06	3.63209e-06	42.0513	-1.543e-08
1.77961	212401	198352	290616	-43.041	86.2839	-0.00426531	4.69124e-06	0.450877	0.210035	1	14	0.121757	4.18962e-07	6.12332e-06	0.0000000E+000	-100.048	2.51488e-06	2.34853e-06	3.44096e-06	43.041	2.03661e-08
1.58469	221382	213527	307577	-43.9652	88.543	-0.00426659	4.47403e-06	0.470354	0.226684	1	14	0.121757	3.95859e-07	6.11506e-06	0.0000000E+000	-100.073	2.3401e-06	2.25706e-06	3.25122e-06	43.9652	-8.26317e-09
1.41224	230196	229957	325377	-44.9702	91.0722	-0.0042675	5.5578e-06	0.490078	0.244785	1	14	0.121754	3.74193e-07	6.12013e-06	0.0000000E+000	-100.129	2.17432e-06	2.17206e-06	3.07335e-06	44.9702	5.07357e-09
1.25967	239647	247798	344724	-45.9581	93.9009	-0.00426981	5.04268e-06	0.509875	0.263461	1	14	0.121759	3.53206e-07	6.13299e-06	0.0000000E+000	-100.089	2.01664e-06	2.08524e-06	2.90087e-06	45.9581	1.28547e-08
1.12249	249971	267348	366006	-46.9239	97.0691	-0.00426164	4.69733e-06	0.53035	0.28297	1	14	0.121757	3.32664e-07	6.1193e-06	0.0000000E+000	-100.113	1.86601e-06	1.99572e-06	2.7322e-06	46.9239	-1.36864e-08
1.00006	260965	288424	388962	-47.8613	100.618	-0.0042629	4.89676e-06	0.551774	0.303396	1	14	0.121755	3.13025e-07	6.14843e-06	0.0000000E+000	-100.073	1.72492e-06	1.90642e-06	2.57095e-06	47.8613	2.91284e-08