File: data/DE_49_3_30.mpt
EC-Lab ASCII FILE
Nb header lines : 75

Potentio Electrochemical Impedance Spectroscopy

Run on channel : 3 (SN 20921)
User :
CE vs. WE compliance from -10 V to 10 V
Electrode connection : standard
Ewe ctrl range : min = -10.00 V, max = 10.00 V
Safety Limits :
	Do not start on E overload
Acquisition started on : 01/22/2020 09:35:42
Technique started on : 01/22/2020 09:35:44
Saved on :
	File : DE_49_3_30.mpr
	Directory : P:\Chemistry\Data\VMP3\Kyler\DOE\DE_49\30C\
	Host : 10.0.4.99
Device : VMP3 (SN 0183)
Address : USB
EC-Lab for windows v11.33 (software)
Internet server v11.32 (firmware)
Command interpretor v11.33 (firmware)
Electrode material :
Initial state :
Electrolyte :
Comments :
Electrode surface area : 0.001 cm²
Characteristic mass : 0.001 g
Equivalent Weight : 0.000 g/eq.
Density : 0.000 g/cm3
Record Analogic IN 1
Cycle Definition : Charge/Discharge alternance
External device configuration :
   device type : Thermostat
   device name : Other
   Analog OUT :
      mode : E/V
      unit : T/°C
      max : 400.000 at 5.000 V
      min : -100.000 at 0.000 V
      current : 0.000
   Analog IN 1 :
      unit : T/°C
      max : 400.000 at 5.000 V
      min : -100.000 at 0.000 V
Mode                Single sine
E (V)               0.0000
vs.                 Eoc
tE (h:m:s)          0:00:0.0000
record              0
dI                  1.000
unit dI             mA
dt (s)              0.000
fi                  1.000
unit fi             MHz
ff                  1.000
unit ff             Hz
Nd                  20
Points              per decade
spacing             Logarithmic
Va (mV)             128.0
pw                  0.50
Na                  3
corr                0
E range min (V)     -10.000
E range max (V)     10.000
I Range             Auto
Bandwidth           5
nc cycles           0
goto Ns'            0
nr cycles           0
inc. cycle          1

freq/Hz	Re(Z)/Ohm	-Im(Z)/Ohm	|Z|/Ohm	Phase(Z)/deg	time/s	<Ewe>/V	<I>/mA	Cs/µF	Cp/µF	cycle number	I Range	|Ewe|/V	|I|/A	(Q-Qo)/mA.h	Analog OUT/V	Analog IN 1/V	Re(Y)/Ohm-1	Im(Y)/Ohm-1	|Y|/Ohm-1	Phase(Y)/deg	dq/mA.h
1.00002e+06	42.3767	-11.8002	43.989	15.5604	2.38449	-0.00317922	-0.052298	-0.0134872	-0.000970545	1	10	0.000109576	2.49099e-06	1.03089e-05	0.0000000E+000	-100.08	0.0218998	-0.00609823	0.022733	-15.5604	1.03089e-05
891247	43.2032	-2.52506	43.2769	3.34491	2.97948	-0.00276264	-0.042435	-0.0707213	-0.000240758	1	10	0.000220882	5.10393e-06	3.35718e-06	0.0000000E+000	-100.064	0.0230676	-0.00134821	0.023107	-3.34491	-6.95175e-06
794333	41.7806	-2.37797	41.8482	3.25751	3.57449	-0.00240335	-0.0334854	-0.0842582	-0.000272063	1	10	0.000874681	2.09013e-05	-2.0793e-06	0.0000000E+000	-100.136	0.0238573	-0.00135785	0.0238959	-3.25751	-5.43648e-06
707950	41.5344	-2.40007	41.6037	3.30717	4.16949	-0.00209998	-0.0263609	-0.0936684	-0.00031173	1	10	0.00200568	4.82093e-05	-6.57521e-06	0.0000000E+000	-100.088	0.0239963	-0.00138663	0.0240363	-3.30717	-4.49591e-06
630957	41.3566	-2.01038	41.4054	2.78301	4.76548	-0.00186077	-0.0205262	-0.125471	-0.000295791	1	10	0.00374809	9.05216e-05	-1.02301e-05	0.0000000E+000	-100.048	0.024123	-0.00117264	0.0241514	-2.78301	-3.65492e-06
562342	41.2529	-1.74666	41.2898	2.42448	5.36148	-0.00164075	-0.0145257	-0.162036	-0.000289963	1	10	0.00622096	0.000150666	-1.2892e-05	0.0000000E+000	-100.072	0.0241974	-0.00102453	0.024219	-2.42448	-2.66185e-06
501206	41.0421	-1.51185	41.0699	2.10962	5.95849	-0.0014575	-0.00990641	-0.210037	-0.000284619	1	10	0.00956019	0.000232779	-1.46853e-05	0.0000000E+000	-100.08	0.0243322	-0.000896313	0.0243487	-2.10962	-1.79333e-06
446686	40.9403	-1.27241	40.9601	1.78016	6.55347	-0.00135603	-0.00728175	-0.280021	-0.000270223	1	10	0.0139081	0.000339553	-1.60198e-05	0.0000000E+000	-100.12	0.0244022	-0.000758411	0.024414	-1.78016	-1.33451e-06
398103	40.8229	-1.10073	40.8378	1.54452	7.14949	-0.00131106	-0.00631428	-0.363199	-0.000263863	1	10	0.0194597	0.000476513	-1.59553e-05	0.0000000E+000	-100.112	0.0244782	-0.000660017	0.0244871	-1.54452	6.45483e-08
354810	40.7292	-0.949247	40.7402	1.33511	7.74549	-0.00131443	-0.00660321	-0.472547	-0.000256541	1	10	0.0263971	0.000647938	-1.8732e-05	0.0000000E+000	-100.072	0.0245391	-0.000571916	0.0245458	-1.33511	-2.7767e-06
316230	40.6389	-0.805006	40.6468	1.13481	8.34049	-0.00131386	-0.00645222	-0.625198	-0.000245224	1	10	0.035	0.000861075	-1.96513e-05	0.0000000E+000	-100.104	0.0245973	-0.000487243	0.0246022	-1.13481	-9.19291e-07
281835	40.5582	-0.671244	40.5638	0.948167	8.93549	-0.00129507	-0.00610362	-0.84129	-0.000230372	1	10	0.0457206	0.00112713	-2.28965e-05	0.0000000E+000	-100.08	0.0246492	-0.000407947	0.0246525	-0.948167	-3.24526e-06
251188	40.4578	-0.563199	40.4618	0.797542	9.53049	-0.00128976	-0.00584077	-1.12502	-0.000217969	1	10	0.0590179	0.00145861	-2.64789e-05	0.0000000E+000	-100.112	0.0247123	-0.000344011	0.0247147	-0.797542	-3.58241e-06
223872	40.3821	-0.468734	40.3848	0.66503	10.1265	-0.00124918	-0.00451725	-1.51668	-0.00020432	1	10	0.0754576	0.00186846	-2.75616e-05	0.0000000E+000	-100.08	0.0247601	-0.000287403	0.0247618	-0.66503	-1.08272e-06
199544	40.2673	-0.393443	40.2693	0.559806	10.7235	-0.00128871	-0.00589667	-2.02722	-0.000193516	1	10	0.0951797	0.00236358	-3.07858e-05	0.0000000E+000	-100.056	0.0248316	-0.000242624	0.0248328	-0.559806	-3.22415e-06
177832	40.1455	-0.328431	40.1468	0.468727	11.1825	-0.0012508	-0.00566365	-2.725	-0.00018237	1	10	0.117912	0.00293701	-3.34424e-05	0.0000000E+000	-100.104	0.0249078	-0.000203771	0.0249086	-0.468727	-2.65659e-06
158486	40.0636	-0.263079	40.0645	0.376229	11.7785	-0.00119138	-0.00370445	-3.81718	-0.000164587	1	10	0.128913	0.00321763	-3.17805e-05	0.0000000E+000	-100.08	0.0249592	-0.000163895	0.0249597	-0.376229	1.66189e-06
141256	40.0408	-0.206451	40.0413	0.295415	12.3745	-0.00116728	-0.00348822	-5.45754	-0.000145082	1	10	0.130468	0.00325834	-3.87382e-05	0.0000000E+000	-100.064	0.0249739	-0.000128765	0.0249742	-0.295415	-6.95769e-06
125909	40.0543	-0.156589	40.0546	0.223992	12.9705	-0.00114195	-0.00263446	-8.07239	-0.000123372	1	10	0.130394	0.00325539	-4.23354e-05	0.0000000E+000	-100.088	0.0249657	-9.76012e-05	0.0249659	-0.223992	-3.59728e-06
112205	40.0558	-0.109728	40.056	0.156954	13.5655	-0.00105875	-0.000339753	-12.9268	-9.70039e-05	1	10	0.129965	0.00324459	-3.91232e-05	0.0000000E+000	-100.096	0.024965	-6.83882e-05	0.0249651	-0.156954	3.21227e-06
100004	40.081	-0.0753176	40.0811	0.107666	14.1615	-0.00112259	-0.00234739	-21.1304	-7.46141e-05	1	10	0.129802	0.00323848	-3.33851e-05	0.0000000E+000	-100.104	0.0249494	-4.68832e-05	0.0249494	-0.107666	5.73809e-06
89129.3	40.0953	-0.037362	40.0954	0.0533899	14.7565	-0.00110272	-0.00159429	-47.7936	-4.14994e-05	1	10	0.129547	0.00323098	-3.75425e-05	0.0000000E+000	-100.104	0.0249405	-2.32403e-05	0.0249405	-0.0533899	-4.15739e-06
79433.3	40.1024	-0.00808874	40.1024	0.0115567	15.3515	-0.00108153	-0.00094	-247.706	-1.00776e-05	1	10	0.129398	0.00322669	-3.30893e-05	0.0000000E+000	-100.12	0.0249362	-5.02968e-06	0.0249362	-0.0115567	4.45318e-06
70795	40.0664	0.0140512	40.0664	-0.0200935	15.8115	-0.00110233	-0.00149363	159.994	1.96775e-05	1	10	0.139774	0.00348857	-3.23777e-05	0.0000000E+000	-100.104	0.0249586	8.75291e-06	0.0249586	0.0200935	7.11569e-07
63093.8	40.14	0.0330144	40.14	-0.0471248	16.4065	-0.00107081	-0.000936269	76.4063	5.16871e-05	1	10	0.130245	0.00324477	-3.1753e-05	0.0000000E+000	-100.128	0.0249128	2.04903e-05	0.0249128	0.0471248	6.24729e-07
56237	40.1034	0.0447944	40.1035	-0.0639977	16.8655	-0.00107939	-0.00118978	63.1792	7.88239e-05	1	10	0.138742	0.00345961	-3.41751e-05	0.0000000E+000	-100.096	0.0249355	2.78522e-05	0.0249355	0.0639977	-2.4221e-06
50122.5	40.1329	0.0618113	40.1329	-0.0882449	17.4605	-0.00106278	-0.000231641	51.3712	0.000121858	1	10	0.129889	0.00323647	-2.94314e-05	0.0000000E+000	-100.096	0.0249172	3.83765e-05	0.0249172	0.0882449	4.7437e-06
44666.7	40.1171	0.0655482	40.1172	-0.0936167	17.9195	-0.00105913	-0.000514975	54.3594	0.000145123	1	10	0.136494	0.00340237	-3.12199e-05	0.0000000E+000	-100.112	0.0249269	4.07287e-05	0.024927	0.0936167	-1.78848e-06
39814.1	40.1712	0.0719053	40.1713	-0.102558	18.5145	-0.00103361	0.00058297	55.5934	0.00017812	1	10	0.129446	0.00322235	-3.16085e-05	0.0000000E+000	-100.088	0.0248934	4.45583e-05	0.0248934	0.102558	-3.88607e-07
35481	40.1641	0.079963	40.1642	-0.11407	18.9745	-0.0010516	-0.000755448	56.0964	0.000222349	1	10	0.134332	0.00334458	-3.2846e-05	0.0000000E+000	-100.08	0.0248977	4.95691e-05	0.0248978	0.11407	-1.23749e-06
31621.1	40.1365	0.0791484	40.1366	-0.112986	19.4345	-0.00105286	-0.000267049	63.5917	0.000247289	1	10	0.138659	0.00345468	-3.43926e-05	0.0000000E+000	-100.088	0.0249149	4.91317e-05	0.0249149	0.112986	-1.5466e-06
28188.1	40.177	0.080373	40.1771	-0.114618	20.0295	-0.00104878	-0.000350946	70.2496	0.00028113	1	10	0.129433	0.00322155	-3.57034e-05	0.0000000E+000	-100.096	0.0248897	4.97912e-05	0.0248898	0.114618	-1.31086e-06
25116.9	40.1593	0.0803077	40.1594	-0.114576	20.4895	-0.00104701	-0.00030993	78.9036	0.000315528	1	10	0.132362	0.00329591	-3.35859e-05	0.0000000E+000	-100.096	0.0249007	4.97947e-05	0.0249008	0.114576	2.11751e-06
22389	40.1275	0.0735683	40.1276	-0.105044	20.9485	-0.00103641	-0.000129109	96.6261	0.00032478	1	10	0.134813	0.00335961	-3.044e-05	0.0000000E+000	-100.128	0.0249205	4.56882e-05	0.0249205	0.105044	3.14588e-06
19948.8	40.1047	0.0758851	40.1048	-0.108413	21.4085	-0.00103376	4.42534e-05	105.135	0.000376416	1	10	0.13688	0.00341306	-3.08997e-05	0.0000000E+000	-100.088	0.0249346	4.71807e-05	0.0249347	0.108413	-4.59651e-07
17786.9	40.0894	0.0710323	40.0894	-0.101519	21.8685	-0.00104047	-0.000192485	125.969	0.000395472	1	10	0.138586	0.00345692	-3.38767e-05	0.0000000E+000	-100.112	0.0249442	4.41974e-05	0.0249442	0.101519	-2.97697e-06
15847.7	40.0623	0.0681081	40.0624	-0.0974059	22.3275	-0.00104317	-0.000151474	147.454	0.000426167	1	10	0.14	0.00349455	-3.66761e-05	0.0000000E+000	-100.152	0.0249611	4.24352e-05	0.0249611	0.0974059	-2.79945e-06
14121.9	40.1308	0.0660202	40.1309	-0.0942586	22.9235	-0.00102554	0.000465529	170.707	0.000462006	1	10	0.129317	0.00322238	-3.6775e-05	0.0000000E+000	-100.104	0.0249184	4.09939e-05	0.0249185	0.0942586	-9.88619e-08
12590.9	40.1044	0.058069	40.1044	-0.0829612	23.3835	-0.00104442	-0.000466518	217.68	0.000456375	1	10	0.130171	0.00324581	-3.84133e-05	0.0000000E+000	-100.08	0.0249349	3.61044e-05	0.0249349	0.0829612	-1.63828e-06
11217.7	40.0967	0.0566716	40.0967	-0.0809803	23.8425	-0.00104351	-0.000328572	250.352	0.000500108	1	10	0.130864	0.0032637	-3.80815e-05	0.0000000E+000	-100.104	0.0249397	3.52491e-05	0.0249397	0.0809803	3.31758e-07
10002.2	40.0808	0.0529001	40.0808	-0.075621	24.3025	-0.00102972	0.000159822	300.792	0.00052397	1	10	0.131417	0.00327879	-3.80978e-05	0.0000000E+000	-100.08	0.0249496	3.29294e-05	0.0249496	0.075621	-1.62734e-08
8914.93	40.0803	0.0481489	40.0803	-0.0688301	24.7849	-0.0010234	0.000566198	370.779	0.00053509	1	10	0.13186	0.0032899	-3.78024e-05	0.0000000E+000	-100.08	0.0249499	2.99726e-05	0.0249499	0.0688301	2.95337e-07
7944	40.0773	0.046983	40.0774	-0.0671683	25.311	-0.00102807	0.000445028	426.423	0.000586035	1	10	0.132218	0.00329906	-3.70466e-05	0.0000000E+000	-100.08	0.0249517	2.92511e-05	0.0249517	0.0671683	7.55807e-07
7082.23	40.0726	0.0447162	40.0727	-0.0639351	25.8879	-0.0010154	0.000661266	502.556	0.000625775	1	10	0.132501	0.00330653	-3.99282e-05	0.0000000E+000	-100.12	0.0249546	2.78464e-05	0.0249547	0.0639351	-2.88159e-06
6307.73	40.0841	0.0379533	40.0841	-0.0542499	26.5226	-0.00101667	-0.00111708	664.81	0.000596006	1	10	0.132734	0.00331139	-3.80504e-05	0.0000000E+000	-100.08	0.0249475	2.36213e-05	0.0249475	0.0542499	1.87779e-06
5621.06	40.1468	0.00955419	40.1468	-0.0136353	27.4583	-0.00101635	-0.0217844	2963.52	0.00016784	1	11	0.126503	0.003151	-4.28829e-05	0.0000000E+000	-100.048	0.0249086	5.92778e-06	0.0249086	0.0136353	-4.83249e-06
5011.6	40.1357	0.00977325	40.1357	-0.0139518	28.2187	-0.00101631	-0.0217784	3249.41	0.000192673	1	11	0.127869	0.00318591	-4.5373e-05	0.0000000E+000	-100.072	0.0249155	6.06703e-06	0.0249155	0.0139518	-2.49002e-06
4466.43	40.1194	0.0103284	40.1194	-0.0147504	28.9777	-0.00101482	-0.0217626	3450.05	0.000228658	1	11	0.12899	0.00321517	-5.0666e-05	0.0000000E+000	-100.112	0.0249256	6.41691e-06	0.0249256	0.0147504	-5.29301e-06
3981.27	40.1084	0.0104722	40.1084	-0.0149598	29.7377	-0.00101318	-0.0218524	3817.32	0.000260236	1	11	0.129908	0.00323892	-5.72839e-05	0.0000000E+000	-100.08	0.0249324	6.50981e-06	0.0249324	0.0149598	-6.6179e-06
3546.6	40.1111	0.00826561	40.1111	-0.0118068	30.4979	-0.00101134	-0.0216981	5429.17	0.000230545	1	11	0.130654	0.0032573	-6.44231e-05	0.0000000E+000	-100.104	0.0249308	5.13744e-06	0.0249308	0.0118068	-7.13929e-06
3161.01	40.1115	0.0099387	40.1115	-0.0141966	31.2577	-0.00101572	-0.0217766	5065.99	0.000311018	1	11	0.131252	0.00327217	-7.11503e-05	0.0000000E+000	-100.128	0.0249305	6.17719e-06	0.0249305	0.0141966	-6.7272e-06
2817.3	40.0955	0.0119701	40.0955	-0.0171051	32.0179	-0.00101954	-0.021639	4719.43	0.000420624	1	11	0.131732	0.00328545	-7.58435e-05	0.0000000E+000	-100.064	0.0249404	7.44571e-06	0.0249404	0.0171051	-4.69312e-06
2510.8	40.0645	0.00640351	40.0645	-0.00915758	32.7777	-0.0010105	-0.0215669	9898.95	0.000252875	1	11	0.132138	0.00329813	-7.78023e-05	0.0000000E+000	-100.12	0.0249597	3.98931e-06	0.0249597	0.00915758	-1.9588e-06