File: data/DE_49_5_30.mpt
EC-Lab ASCII FILE
Nb header lines : 75

Potentio Electrochemical Impedance Spectroscopy

Run on channel : 1 (SN 20909)
User :
CE vs. WE compliance from -10 V to 10 V
Electrode connection : standard
Ewe ctrl range : min = -10.00 V, max = 10.00 V
Safety Limits :
	Do not start on E overload
Acquisition started on : 01/22/2020 09:39:16
Technique started on : 01/22/2020 09:39:17
Saved on :
	File : DE_49_5_30.mpr
	Directory : P:\Chemistry\Data\VMP3\Kyler\DOE\DE_49\30C\
	Host : 10.0.4.99
Device : VMP3 (SN 0183)
Address : USB
EC-Lab for windows v11.33 (software)
Internet server v11.32 (firmware)
Command interpretor v11.33 (firmware)
Electrode material :
Initial state :
Electrolyte :
Comments :
Electrode surface area : 0.001 cm²
Characteristic mass : 0.001 g
Equivalent Weight : 0.000 g/eq.
Density : 0.000 g/cm3
Record Analogic IN 1
Cycle Definition : Charge/Discharge alternance
External device configuration :
   device type : Thermostat
   device name : Other
   Analog OUT :
      mode : E/V
      unit : T/°C
      max : 400.000 at 5.000 V
      min : -100.000 at 0.000 V
      current : 0.000
   Analog IN 1 :
      unit : T/°C
      max : 400.000 at 5.000 V
      min : -100.000 at 0.000 V
Mode                Single sine
E (V)               0.0000
vs.                 Eoc
tE (h:m:s)          0:00:0.0000
record              0
dI                  1.000
unit dI             mA
dt (s)              0.000
fi                  1.000
unit fi             MHz
ff                  1.000
unit ff             Hz
Nd                  20
Points              per decade
spacing             Logarithmic
Va (mV)             128.0
pw                  0.50
Na                  3
corr                0
E range min (V)     -10.000
E range max (V)     10.000
I Range             Auto
Bandwidth           5
nc cycles           0
goto Ns'            0
nr cycles           0
inc. cycle          1

freq/Hz	Re(Z)/Ohm	-Im(Z)/Ohm	|Z|/Ohm	Phase(Z)/deg	time/s	<Ewe>/V	<I>/mA	Cs/µF	Cp/µF	cycle number	I Range	|Ewe|/V	|I|/A	(Q-Qo)/mA.h	Analog OUT/V	Analog IN 1/V	Re(Y)/Ohm-1	Im(Y)/Ohm-1	|Y|/Ohm-1	Phase(Y)/deg	dq/mA.h
1.00002e+06	26.6662	105.261	108.586	-75.7841	1.95248	-0.00426258	0.00296737	0.00151197	0.00142079	1	11	0.00319528	2.94262e-05	6.50604e-07	0.0000000E+000	-100.086	0.00226158	0.00892726	0.00920927	75.7841	6.50604e-07
891247	33.8247	111.855	116.858	-73.1748	2.54747	-0.00373241	0.00300955	0.00159649	0.00146273	1	11	0.00525729	4.49888e-05	1.23768e-06	0.0000000E+000	-100.054	0.00247696	0.00819109	0.00855741	73.1748	5.87078e-07
794333	41.3445	119.838	126.769	-70.9654	3.14347	-0.00327981	0.00303064	0.00167195	0.00149411	1	11	0.00836251	6.59663e-05	1.62964e-06	0.0000000E+000	-100.086	0.0025727	0.00745702	0.00788834	70.9654	3.91955e-07
707950	49.3745	129.243	138.354	-69.0918	3.73949	-0.00287229	0.00318014	0.00173944	0.00151791	1	11	0.0127169	9.19162e-05	2.07105e-06	0.0000000E+000	-100.038	0.00257942	0.00675193	0.00722786	69.0918	4.41417e-07
630957	58.0752	139.889	151.465	-67.4542	4.33548	-0.00247649	0.00313217	0.00180317	0.00153808	1	11	0.0184257	0.000121649	2.705e-06	0.0000000E+000	-100.094	0.00253142	0.00609759	0.00660217	67.4542	6.33949e-07
562342	67.5812	151.451	165.845	-65.9523	4.93047	-0.00213893	0.00323221	0.00186874	0.00155843	1	11	0.0254494	0.000153453	2.92492e-06	0.0000000E+000	-100.126	0.00245709	0.00550639	0.00602973	65.9523	2.1992e-07
501206	78.1922	163.75	181.461	-64.4751	5.52749	-0.00183158	0.00332627	0.0019392	0.00157913	1	11	0.0336749	0.000185577	3.71666e-06	0.0000000E+000	-100.046	0.00237464	0.00497296	0.00551083	64.4751	7.91737e-07
446686	90.0999	176.579	198.238	-62.967	6.12348	-0.00159356	0.00332179	0.0020178	0.00160097	1	11	0.0429356	0.000216586	3.85599e-06	0.0000000E+000	-100.062	0.00229272	0.00449331	0.00504444	62.967	1.39333e-07
398103	103.495	189.591	216	-61.3706	6.71848	-0.00143878	0.00325013	0.00210866	0.00162456	1	11	0.0531425	0.00024603	4.67168e-06	0.0000000E+000	-100.07	0.00221825	0.0040636	0.00462963	61.3706	8.15685e-07
354810	118.304	203.078	235.025	-59.777	7.31348	-0.00134402	0.00326412	0.00220882	0.00164915	1	11	0.0643152	0.000273653	5.60453e-06	0.0000000E+000	-100.102	0.00214176	0.00367652	0.00425487	59.777	9.3285e-07
316230	134.743	216.179	254.733	-58.0649	7.90849	-0.00123075	0.00335147	0.00232811	0.00167672	1	11	0.0764906	0.000300277	6.32106e-06	0.0000000E+000	-100.062	0.00207652	0.00333152	0.00392568	58.0649	7.16527e-07
281835	152.815	229.062	275.358	-56.2915	8.50449	-0.00120727	0.00328018	0.00246532	0.00170602	1	11	0.0897095	0.000325793	6.91297e-06	0.0000000E+000	-100.07	0.00201545	0.00302106	0.00363164	56.2915	5.91918e-07
251188	172.223	241.184	296.362	-54.4703	9.09948	-0.00119746	0.00324416	0.00262708	0.0017399	1	11	0.103981	0.000350858	7.41847e-06	0.0000000E+000	-100.094	0.00196086	0.00274602	0.00337425	54.4703	5.05498e-07
223872	193.061	252.612	317.939	-52.6108	9.55949	-0.00115392	0.00332796	0.00281428	0.00177659	1	11	0.119357	0.000375408	7.54056e-06	0.0000000E+000	-100.094	0.00190988	0.002499	0.00314526	52.6108	1.22088e-07
199544	215.077	263.147	339.86	-50.74	10.0195	-0.00110564	0.00329026	0.00303098	0.00181711	1	11	0.135879	0.000399807	8.13686e-06	0.0000000E+000	-100.07	0.00186206	0.00227824	0.00294239	50.74	5.96296e-07
177832	238.12	272.899	362.181	-48.8935	10.6155	-0.00102031	0.00330239	0.0032795	0.00186192	1	11	0.129559	0.000357719	8.14231e-06	0.0000000E+000	-100.07	0.00181528	0.00208042	0.00276105	48.8935	5.45778e-09
158486	262.031	281.56	384.625	-47.0574	11.2115	-0.000949597	0.00327346	0.00356663	0.00191128	1	11	0.130058	0.000338143	9.36929e-06	0.0000000E+000	-100.094	0.00177124	0.00190325	0.00259994	47.0574	1.22698e-06
141256	286.615	289.233	407.191	-45.2605	11.8085	-0.000889421	0.00332012	0.00389552	0.00196547	1	11	0.129633	0.000318359	1.01867e-05	0.0000000E+000	-100.11	0.00172864	0.00174443	0.00245585	45.2605	8.174e-07
125909	311.784	295.902	429.846	-43.5029	12.4055	-0.000867659	0.00331731	0.00427183	0.00202435	1	11	0.129682	0.000301693	1.09505e-05	0.0000000E+000	-100.038	0.00168744	0.00160149	0.00232642	43.5029	7.6381e-07
112205	337.282	301.453	452.364	-41.7895	13.0015	-0.000838512	0.00323202	0.00470531	0.00208955	1	11	0.129661	0.00028663	1.12292e-05	0.0000000E+000	-100.062	0.00164823	0.00147314	0.00221061	41.7895	2.78686e-07
100004	362.853	305.967	474.634	-40.1384	13.5975	-0.000806009	0.00334027	0.00520152	0.00216152	1	11	0.129608	0.000273069	1.16599e-05	0.0000000E+000	-100.078	0.00161069	0.00135817	0.00210688	40.1384	4.30725e-07
89129.3	388.62	309.66	496.906	-38.5485	14.1935	-0.000792509	0.00333486	0.00576652	0.00223943	1	11	0.129389	0.000260389	1.26073e-05	0.0000000E+000	-100.07	0.0015739	0.00125412	0.00201245	38.5485	9.47412e-07
79433.3	422.104	308.701	522.942	-36.1795	14.9555	-0.000972683	0.00112075	0.00649052	0.00226177	1	12	0.121572	0.000232478	1.26325e-05	0.0000000E+000	-100.094	0.00154352	0.00112884	0.00191226	36.1795	2.52264e-08
70795	447.098	310.839	544.534	-34.8084	15.4155	-0.000978053	0.00113077	0.00723239	0.00235669	1	12	0.139807	0.000256746	1.26236e-05	0.0000000E+000	-100.11	0.00150783	0.0010483	0.00183643	34.8084	-8.9186e-09
63093.8	472.023	312.718	566.214	-33.5247	16.0115	-0.00092597	0.00110957	0.00806641	0.00246051	1	12	0.131306	0.000231902	1.29589e-05	0.0000000E+000	-100.054	0.00147232	0.000975421	0.00176612	33.5247	3.35293e-07
56237	496.711	314.198	587.743	-32.3157	16.6065	-0.000884125	0.00112939	0.00900729	0.00257411	1	12	0.130137	0.000221417	1.30773e-05	0.0000000E+000	-100.134	0.0014379	0.000909554	0.00170142	32.3157	1.18326e-07
50122.5	521.336	315.343	609.289	-31.1687	17.2025	-0.000863127	0.0011259	0.0100694	0.00269727	1	12	0.130006	0.000213374	1.32522e-05	0.0000000E+000	-100.054	0.00140434	0.000849449	0.00164126	31.1687	1.74944e-07
44666.7	545.772	316.176	630.741	-30.0846	17.7985	-0.000839631	0.00113465	0.0112696	0.0028318	1	12	0.129906	0.000205957	1.32641e-05	0.0000000E+000	-100.086	0.00137186	0.000794744	0.00158544	30.0846	1.1898e-08
39814.1	570.085	316.89	652.239	-29.0681	18.3945	-0.000821487	0.00112838	0.0126147	0.00297768	1	12	0.129594	0.00019869	1.33852e-05	0.0000000E+000	-100.102	0.00134007	0.000744894	0.00153318	29.0681	1.2114e-07
35481	594.414	317.465	673.878	-28.1058	18.9895	-0.000816042	0.0011314	0.0141296	0.00313586	1	12	0.129567	0.000192271	1.39958e-05	0.0000000E+000	-100.11	0.00130896	0.000699089	0.00148395	28.1058	6.10563e-07
31621.1	618.722	317.825	695.579	-27.1886	19.5855	-0.000803455	0.00114161	0.0158363	0.00330626	1	12	0.129384	0.000186009	1.38972e-05	0.0000000E+000	-100.086	0.0012788	0.000656893	0.00143765	27.1886	-9.85962e-08
28188.1	642.886	317.956	717.215	-26.3159	20.0455	-0.000800676	0.00113282	0.0177578	0.00348997	1	12	0.139638	0.000194695	1.39223e-05	0.0000000E+000	-100.102	0.00124978	0.000618112	0.00139428	26.3159	2.50978e-08
25116.9	667.246	318.187	739.229	-25.4949	20.6415	-0.000785795	0.00113506	0.0199146	0.00368959	1	12	0.130061	0.000175942	1.39675e-05	0.0000000E+000	-100.038	0.00122103	0.00058227	0.00135276	25.4949	4.51602e-08
22389	691.457	317.948	761.055	-24.6941	21.1005	-0.000778858	0.00114525	0.0223578	0.0039022	1	12	0.137189	0.000180261	1.40175e-05	0.0000000E+000	-100.078	0.00119381	0.00054894	0.00131397	24.6941	5.00359e-08
19948.8	715.969	317.756	783.314	-23.9323	21.6965	-0.000776621	0.00112707	0.0251078	0.00413167	1	12	0.129521	0.00016535	1.38477e-05	0.0000000E+000	-100.094	0.00116687	0.000517872	0.00127663	23.9323	-1.69828e-07
17786.9	740.194	317.054	805.239	-23.1874	22.1565	-0.00077291	0.00114855	0.0282219	0.00437526	1	12	0.133901	0.000166287	1.39336e-05	0.0000000E+000	-100.086	0.00114155	0.000488972	0.00124187	23.1874	8.59113e-08
15847.7	764.626	316.241	827.442	-22.4694	22.6155	-0.00077373	0.00115266	0.0317568	0.0046387	1	12	0.13737	0.000166018	1.39731e-05	0.0000000E+000	-100.102	0.0011168	0.000461894	0.00120854	22.4694	3.95729e-08
14121.9	788.868	315.018	849.44	-21.7682	23.0745	-0.000782755	0.00114394	0.0357761	0.00492036	1	12	0.139992	0.000164805	1.42118e-05	0.0000000E+000	-100.11	0.0010933	0.000436585	0.00117725	21.7682	2.38632e-07
12590.9	813.444	313.911	871.912	-21.1018	23.6705	-0.000762803	0.00114915	0.0402676	0.00521943	1	12	0.12941	0.000148421	1.4135e-05	0.0000000E+000	-100.038	0.00107	0.000412915	0.0011469	21.1018	-7.67378e-08
11217.7	837.754	312.153	894.02	-20.4357	24.1295	-0.000755847	0.00117769	0.0454516	0.00554101	1	12	0.130657	0.000146146	1.43122e-05	0.0000000E+000	-100.102	0.00104815	0.000390547	0.00111854	20.4357	1.77168e-07
10002.2	861.726	310.123	915.832	-19.7931	24.5895	-0.000768192	0.00115031	0.0513085	0.00588336	1	12	0.131496	0.00014358	1.45604e-05	0.0000000E+000	-100.094	0.0010274	0.000369745	0.0010919	19.7931	2.48226e-07
8914.93	885.623	307.601	937.522	-19.1535	25.0719	-0.00073168	0.00117713	0.0580383	0.0062478	1	12	0.132058	0.000140858	1.46937e-05	0.0000000E+000	-100.094	0.0010076	0.000349965	0.00106664	19.1535	1.33215e-07
7944	909.411	304.632	959.077	-18.5197	25.598	-0.000722897	0.00120848	0.0657666	0.00663513	1	12	0.132398	0.000138047	1.49429e-05	0.0000000E+000	-100.054	0.000988674	0.000331183	0.00104267	18.5197	2.49197e-07
7082.23	932.488	301.394	979.985	-17.9116	26.1749	-0.000710552	0.00119952	0.0745616	0.00705253	1	12	0.13258	0.000135288	1.51821e-05	0.0000000E+000	-100.094	0.000970965	0.000313831	0.00102042	17.9116	2.39285e-07
6307.73	955.606	297.778	1000.93	-17.3076	26.8095	-0.000706058	0.00120846	0.0847334	0.00749953	1	12	0.132665	0.000132542	1.53007e-05	0.0000000E+000	-100.126	0.000953837	0.000297227	0.000999074	17.3076	1.18569e-07
5621.06	978.144	293.918	1021.35	-16.7248	27.5103	-0.000696883	0.00121335	0.0963331	0.00797776	1	12	0.13267	0.000129896	1.56101e-05	0.0000000E+000	-100.102	0.00093768	0.00028176	0.000979098	16.7248	3.09436e-07
5011.6	999.968	289.53	1041.04	-16.1478	28.2707	-0.000683979	0.0012393	0.109686	0.00848404	1	12	0.132624	0.000127396	1.58902e-05	0.0000000E+000	-100.094	0.000922681	0.000267153	0.000960578	16.1478	2.80077e-07
4466.43	1021.23	285.127	1060.28	-15.5998	29.0307	-0.000688548	0.00118823	0.124975	0.00903761	1	12	0.132555	0.000125018	1.61703e-05	0.0000000E+000	-100.086	0.000908402	0.000253626	0.000943144	15.5998	2.80066e-07
3981.27	1041.79	280.492	1078.89	-15.069	29.7907	-0.000689294	0.00120193	0.142521	0.0096331	1	12	0.132467	0.000122781	1.63367e-05	0.0000000E+000	-100.078	0.000895009	0.000240973	0.000926881	15.069	1.66443e-07
3546.6	1061.79	275.761	1097.02	-14.5588	30.5509	-0.000686105	0.00121123	0.162733	0.0102828	1	12	0.132378	0.00012067	1.65617e-05	0.0000000E+000	-100.046	0.000882291	0.000229142	0.000911561	14.5588	2.24972e-07
3161.01	1080.46	271.126	1113.95	-14.0867	31.3107	-0.000685545	0.00120768	0.185705	0.011001	1	12	0.132283	0.000118751	1.67721e-05	0.0000000E+000	-100.126	0.000870708	0.000218493	0.000897703	14.0867	2.10402e-07
2817.3	1098.42	266.407	1130.27	-13.633	32.071	-0.000685415	0.00119549	0.212052	0.0117807	1	12	0.132197	0.000116961	1.69277e-05	0.0000000E+000	-100.062	0.000859819	0.000208537	0.000884746	13.633	1.5559e-07
2510.8	1115.31	262.107	1145.69	-13.225	32.8307	-0.000683196	0.00120214	0.24184	0.0126576	1	12	0.132116	0.000115315	1.71467e-05	0.0000000E+000	-100.07	0.000849686	0.000199684	0.000872835	13.225	2.19038e-07
2237.85	1131.12	258.228	1160.22	-12.8598	33.591	-0.000683625	0.00121895	0.275414	0.0136429	1	12	0.132041	0.000113807	1.74997e-05	0.0000000E+000	-100.062	0.000840284	0.000191831	0.000861903	12.8598	3.53009e-07
1995.64	1145.89	254.947	1173.91	-12.5433	34.3507	-0.000682469	0.00119904	0.312815	0.0147543	1	12	0.131972	0.000112421	1.76629e-05	0.0000000E+000	-100.038	0.000831523	0.000185004	0.000851855	12.5433	1.63137e-07
1778.29	1159.68	252.611	1186.87	-12.2887	35.1109	-0.000687988	0.00120225	0.354295	0.0160496	1	12	0.13191	0.000111141	1.79773e-05	0.0000000E+000	-100.102	0.000823248	0.000179327	0.000842553	12.2887	3.14429e-07
1585.51	1172.52	251.267	1199.14	-12.0954	35.8707	-0.00068465	0.00121612	0.399499	0.0175407	1	12	0.131854	0.000109957	1.83031e-05	0.0000000E+000	-100.062	0.000815417	0.000174741	0.00083393	12.0954	3.2577e-07
1411.84	1184.92	251.185	1211.25	-11.9687	36.6322	-0.000691998	0.00121098	0.448789	0.0193003	1	12	0.131815	0.000108826	1.86217e-05	0.0000000E+000	-100.062	0.000807648	0.000171209	0.000825595	11.9687	3.18621e-07
1258.79	1196.25	252.566	1222.63	-11.9218	37.392	-0.000690468	0.0012259	0.500601	0.0213626	1	12	0.131771	0.000107777	1.89504e-05	0.0000000E+000	-100.094	0.00080027	0.000168961	0.000817912	11.9218	3.28735e-07
1121.79	1206.8	255.433	1233.54	-11.9509	38.1504	-0.000684371	0.00122087	0.55543	0.0238165	1	12	0.131731	0.000106791	1.9167e-05	0.0000000E+000	-100.046	0.000793104	0.000167869	0.000810675	11.9509	2.16621e-07
1000.32	1217	260.138	1244.49	-12.0656	38.9097	-0.000685937	0.00120275	0.611615	0.0267241	1	12	0.131705	0.00010583	1.95039e-05	0.0000000E+000	-100.046	0.000785792	0.000167966	0.000803544	12.0656	3.36877e-07
891.427	1226.7	266.949	1255.41	-12.277	39.6684	-0.000683028	0.00119495	0.668814	0.0302406	1	12	0.13168	0.00010489	1.98275e-05	0.0000000E+000	-100.086	0.000778335	0.000169378	0.000796551	12.277	3.23554e-07
794.238	1236.06	275.431	1266.38	-12.5619	40.4279	-0.000690468	0.00119211	0.72754	0.0344155	1	12	0.131659	0.000103965	2.00089e-05	0.0000000E+000	-100.086	0.000770749	0.000171745	0.000789652	12.5619	1.8146e-07
707.509	1245.22	286.598	1277.78	-12.9614	41.1905	-0.000689834	0.00121593	0.784901	0.0394867	1	12	0.131631	0.000103016	2.03626e-05	0.0000000E+000	-100.062	0.000762669	0.000175534	0.000782609	12.9614	3.53681e-07
631.01	1254.16	300.129	1289.58	-13.4581	41.9484	-0.000687168	0.00120464	0.84038	0.0455196	1	12	0.131618	0.000102063	2.06948e-05	0.0000000E+000	-100.078	0.000754155	0.000180474	0.000775449	13.4581	3.32202e-07
562.339	1263.66	316.395	1302.67	-14.0567	42.7049	-0.000682319	0.00120061	0.894523	0.0527696	1	12	0.131599	0.000101023	2.09718e-05	0.0000000E+000	-100.102	0.000744668	0.00018645	0.000767655	14.0567	2.76981e-07
501.444	1273.53	335.535	1316.99	-14.7602	43.4622	-0.000682431	0.00122608	0.945933	0.0614005	1	12	0.131588	9.99161e-05	2.12661e-05	0.0000000E+000	-100.11	0.000734252	0.000193453	0.000759309	14.7602	2.94264e-07
446.859	1283.43	357.748	1332.36	-15.5754	44.2189	-0.000682935	0.00120454	0.99557	0.0717767	1	12	0.131571	9.87499e-05	2.14935e-05	0.0000000E+000	-100.102	0.000722985	0.000201527	0.000750547	15.5754	2.27477e-07
398.089	1294.39	383.333	1349.96	-16.4966	44.9817	-0.000682711	0.00121682	1.04295	0.0840957	1	12	0.131564	9.74575e-05	2.16944e-05	0.0000000E+000	-100.046	0.00071027	0.000210346	0.000740762	16.4966	2.00818e-07
354.66	1306.2	412.656	1369.84	-17.5323	45.742	-0.00068258	0.00120083	1.08748	0.0986866	1	12	0.131556	9.60374e-05	2.19722e-05	0.0000000E+000	-100.054	0.000696102	0.000219912	0.000730013	17.5323	2.77831e-07
316.316	1318.68	445.405	1391.87	-18.6632	46.4989	-0.000677415	0.00122289	1.12965	0.115679	1	12	0.131538	9.45045e-05	2.21807e-05	0.0000000E+000	-100.11	0.000680678	0.000229909	0.000718457	18.6632	2.08538e-07
281.894	1332.51	482.24	1417.08	-19.8954	47.2544	-0.000687895	0.00122283	1.17077	0.135583	1	12	0.131533	9.28196e-05	2.25088e-05	0.0000000E+000	-100.07	0.000663556	0.000240144	0.000705674	19.8954	3.28075e-07
251.044	1348.02	523.725	1446.18	-21.2319	48.0109	-0.000680921	0.00119734	1.21051	0.158755	1	12	0.131524	9.09458e-05	2.28227e-05	0.0000000E+000	-100.078	0.000644541	0.000250414	0.000691476	21.2319	3.13921e-07
223.925	1364.9	569.407	1478.91	-22.6449	48.7737	-0.000685359	0.00120531	1.24823	0.185036	1	12	0.131518	8.89293e-05	2.31225e-05	0.0000000E+000	-100.062	0.000624046	0.000260339	0.000676173	22.6449	2.99815e-07
199.553	1384.28	620.995	1517.19	-24.1613	49.5342	-0.000685061	0.00120654	1.28432	0.215164	1	12	0.131504	8.66764e-05	2.33057e-05	0.0000000E+000	-100.062	0.000601373	0.000269779	0.000659113	24.1613	1.83173e-07
177.781	1405.69	677.622	1560.49	-25.7367	50.3023	-0.000676595	0.00121425	1.32113	0.249115	1	12	0.131492	8.42635e-05	2.35369e-05	0.0000000E+000	-100.094	0.000577254	0.000278269	0.000640824	25.7367	2.31217e-07
158.428	1430.51	740.391	1610.76	-27.3648	51.0687	-0.000681219	0.00120884	1.35683	0.286675	1	12	0.131482	8.16273e-05	2.38126e-05	0.0000000E+000	-100.038	0.000551355	0.000285366	0.000620827	27.3648	2.75664e-07
141.311	1458.06	808.498	1667.22	-29.0084	51.8219	-0.000682748	0.00120643	1.39304	0.327595	1	12	0.131473	7.88578e-05	2.4073e-05	0.0000000E+000	-100.086	0.000524555	0.000290866	0.000599801	29.0084	2.60452e-07
125.846	1489.64	885.163	1732.78	-30.7194	52.5774	-0.000684669	0.00119553	1.42876	0.372836	1	12	0.131464	7.58689e-05	2.43034e-05	0.0000000E+000	-100.062	0.000496127	0.000294806	0.000577107	30.7194	2.30319e-07
112.19	1525.18	967.719	1806.28	-32.3949	53.3228	-0.000679373	0.00118926	1.46594	0.42077	1	12	0.131459	7.2779e-05	2.451e-05	0.0000000E+000	-100.07	0.000467466	0.000296605	0.000553624	32.3949	2.06597e-07
100.032	1565.8	1058.29	1889.9	-34.0539	54.0827	-0.000677825	0.00121111	1.50341	0.471422	1	12	0.131446	6.9552e-05	2.47207e-05	0.0000000E+000	-100.054	0.00043839	0.000296298	0.00052913	34.0539	2.10761e-07
89.116	1612.64	1157.54	1985.07	-35.6704	54.8497	-0.000680884	0.00120542	1.54287	0.524624	1	12	0.131441	6.62148e-05	2.49646e-05	0.0000000E+000	-100.062	0.000409248	0.000293754	0.000503761	35.6704	2.43854e-07
79.4155	1665.13	1264.77	2091.01	-37.2191	55.6142	-0.000682469	0.00120897	1.58453	0.579719	1	12	0.131435	6.28572e-05	2.52333e-05	0.0000000E+000	-100.086	0.000380835	0.000289269	0.000478239	37.2191	2.68735e-07
70.8387	1726.09	1379.83	2209.83	-38.6387	56.3654	-0.000685993	0.00121906	1.62826	0.634833	1	12	0.131423	5.9472e-05	2.54896e-05	0.0000000E+000	-100.03	0.000353466	0.00028256	0.000452524	38.6387	2.56312e-07
63.0823	1795.78	1506.26	2343.86	-39.9891	57.1458	-0.000681965	0.0011892	1.67499	0.691753	1	12	0.131421	5.60705e-05	2.57189e-05	0.0000000E+000	-100.102	0.000326883	0.000274182	0.000426647	39.9891	2.29271e-07
56.2418	1875.31	1642.17	2492.69	-41.208	57.8904	-0.00068286	0.00119172	1.72323	0.747899	1	12	0.131411	5.27186e-05	2.59963e-05	0.0000000E+000	-100.07	0.000301812	0.000264291	0.000401173	41.208	2.77365e-07
50.1444	1965.6	1787.66	2656.94	-42.2856	58.6472	-0.000679149	0.00120122	1.77547	0.803747	1	12	0.131412	4.946e-05	2.62714e-05	0.0000000E+000	-100.086	0.000278441	0.000253234	0.000376373	42.2856	2.75173e-07
44.6712	2069.64	1941.36	2837.65	-43.1682	59.6632	-0.000685061	0.00102513	1.83521	0.858972	1	13	0.13163	4.63868e-05	2.65308e-05	0.0000000E+000	-100.11	0.000257025	0.000241094	0.000352404	43.1682	2.59346e-07
39.8089	2187.74	2105.68	3036.47	-43.9051	60.4257	-0.000685005	0.00101323	1.89866	0.913053	1	13	0.13159	4.33364e-05	2.6798e-05	0.0000000E+000	-100.062	0.000237279	0.000228379	0.00032933	43.9051	2.67235e-07
35.4653	2322.8	2278.85	3254.01	-44.4528	61.1761	-0.000688529	0.00102178	1.96925	0.965819	1	13	0.131551	4.04275e-05	2.6946e-05	0.0000000E+000	-100.086	0.000219369	0.000215218	0.000307314	44.4528	1.48014e-07
31.6296	2474.44	2464.27	3492.2	-44.882	61.9005	-0.000684893	0.00102045	2.04192	1.01676	1	13	0.13153	3.7664e-05	2.71109e-05	0.0000000E+000	-100.046	0.000202898	0.000202064	0.000286352	44.882	1.64828e-07
28.1701	2648.29	2656.06	3750.75	-45.0839	62.7058	-0.000681835	0.00103595	2.12713	1.06668	1	13	0.131504	3.50606e-05	2.73636e-05	0.0000000E+000	-100.07	0.000188248	0.0001888	0.000266614	45.0839	2.52751e-07
25.1044	2842.41	2851.73	4026.37	-45.0938	63.4619	-0.00069362	0.00104168	2.22311	1.11519	1	13	0.131479	3.26545e-05	2.75995e-05	0.0000000E+000	-100.094	0.000175331	0.000175906	0.000248362	45.0938	2.35934e-07
22.3854	3059.76	3053.94	4323.04	-44.9454	64.1484	-0.000690077	0.00103721	2.32806	1.16181	1	13	0.131466	3.04106e-05	2.77903e-05	0.0000000E+000	-100.07	0.000163723	0.000163411	0.000231319	44.9454	1.90747e-07
19.9553	3302.02	3249.96	4633.1	-44.5447	64.9102	-0.000688604	0.00102646	2.45406	1.20753	1	13	0.131452	2.83723e-05	2.80587e-05	0.0000000E+000	-100.078	0.000153829	0.000151403	0.000215838	44.5447	2.6838e-07