File: data/DE_57_6_60.mpt
EC-Lab ASCII FILE
Nb header lines : 60

Potentio Electrochemical Impedance Spectroscopy

Run on channel : 2 (SN 20919)
User :
CE vs. WE compliance from -10 V to 10 V
Electrode connection : standard
Ewe ctrl range : min = -10.00 V, max = 10.00 V
Acquisition started on : 02/07/2020 11:51:25
Technique started on : 02/07/2020 11:51:26
Saved on :
	File : DE_57_6_60.mpr
	Directory : P:\Chemistry\Data\VMP3\Kyler\DOE\DE_57\60c\
	Host : 10.0.4.99
Device : VMP3
Address : USB
EC-Lab for windows v11.33 (software)
Internet server v11.32 (firmware)
Command interpretor v11.33 (firmware)
Electrode material :
Initial state :
Electrolyte :
Comments :
Electrode surface area : 0.001 cm²
Characteristic mass : 0.001 g
Equivalent Weight : 0.000 g/eq.
Density : 0.000 g/cm3
Record Analogic IN 1
Cycle Definition : Charge/Discharge alternance
Mode                Single sine
E (V)               0.0000
vs.                 Eoc
tE (h:m:s)          0:00:0.0000
record              0
dI                  1.000
unit dI             mA
dt (s)              0.000
fi                  1.000
unit fi             MHz
ff                  1.000
unit ff             Hz
Nd                  20
Points              per decade
spacing             Logarithmic
Va (mV)             128.0
pw                  0.50
Na                  3
corr                0
E range min (V)     -10.000
E range max (V)     10.000
I Range             Auto
Bandwidth           5
nc cycles           0
goto Ns'            0
nr cycles           0
inc. cycle          1

freq/Hz	Re(Z)/Ohm	-Im(Z)/Ohm	|Z|/Ohm	Phase(Z)/deg	time/s	<Ewe>/V	<I>/mA	Cs/µF	Cp/µF	cycle number	I Range	|Ewe|/V	|I|/A	(Q-Qo)/mA.h	Analog IN 1/V	Re(Y)/Ohm-1	Im(Y)/Ohm-1	|Y|/Ohm-1	Phase(Y)/deg	dq/mA.h
1.00002e+06	54.0189	16.6149	56.5164	-17.0967	1.9515	-0.00469599	0.00287346	0.00957884	0.00082787	1	11	0.00103842	1.83739e-05	1.00669e-06	-0.00157965	0.0169121	0.00520176	0.017694	17.0967	1.00669e-06
891247	49.8486	15.2544	52.1304	-17.0149	2.54748	-0.00427871	0.00260212	0.0117065	0.00100239	1	11	0.00164143	3.1487e-05	1.24739e-06	-0.00149947	0.018343	0.00561323	0.0191827	17.0149	2.40692e-07
794333	49.272	11.8031	50.666	-13.4713	3.14348	-0.00393203	0.00265918	0.0169755	0.000921253	1	11	0.00255136	5.03563e-05	1.4702e-06	-0.00125893	0.0191941	0.00459792	0.0197371	13.4713	2.22812e-07
707950	51.4778	10.3687	52.5117	-11.3882	3.73848	-0.00364274	0.00270471	0.0216816	0.000845341	1	11	0.00388384	7.39616e-05	2.1449e-06	-0.00165983	0.0186685	0.00376023	0.0190434	11.3882	6.74705e-07
630957	52.696	8.90944	53.4439	-9.59638	4.33449	-0.00338931	0.00279541	0.028312	0.00078682	1	11	0.00559926	0.000104769	2.43584e-06	-0.00133911	0.0184494	0.00311928	0.0187112	9.59638	2.90937e-07
562342	53.5291	9.22704	54.3185	-9.78021	4.93049	-0.00318916	0.00290208	0.030673	0.000885087	1	11	0.00780754	0.000143736	2.87835e-06	-0.00133911	0.0181424	0.00312728	0.0184099	9.78021	4.42512e-07
501206	54.5522	8.45849	55.2041	-8.8137	5.52649	-0.00303186	0.00285711	0.0375414	0.000881362	1	11	0.01046	0.000189479	3.75942e-06	-0.00165983	0.0179007	0.00277556	0.0181146	8.8137	8.81072e-07
446686	55.7916	7.96246	56.357	-8.12227	6.12149	-0.00290028	0.00300356	0.0447477	0.000893244	1	11	0.013689	0.000242899	4.68667e-06	-0.00157965	0.017566	0.00250699	0.017744	8.12227	9.27252e-07
398103	56.6026	7.23827	57.0635	-7.28737	6.71748	-0.00286292	0.00281493	0.0552318	0.000888674	1	11	0.0173992	0.000304909	4.69666e-06	-0.00182019	0.0173828	0.00222289	0.0175243	7.28737	9.99025e-09
354810	57.4821	6.76878	57.8793	-6.71591	7.31349	-0.00285229	0.00296825	0.0662695	0.000906334	1	11	0.0217183	0.000375234	5.5576e-06	-0.00182019	0.0171588	0.00202052	0.0172773	6.71591	8.60937e-07
316230	58.0011	6.67214	58.3836	-6.56216	7.90848	-0.00286795	0.00279597	0.0754314	0.000985147	1	11	0.0266529	0.000456514	6.04917e-06	-0.00157965	0.0170159	0.00195742	0.0171281	6.56216	4.91564e-07
281835	58.4602	6.14492	58.7823	-6.00048	8.50449	-0.00288011	0.00288797	0.0918988	0.00100427	1	11	0.0322953	0.000549405	6.18368e-06	-0.00125893	0.0169187	0.00177837	0.0170119	6.00048	1.34513e-07
251188	58.86	5.76649	59.1418	-5.59538	9.1005	-0.0028871	0.00297328	0.109878	0.00104459	1	11	0.0386907	0.000654201	7.61563e-06	-0.00125893	0.0168279	0.00164863	0.0169085	5.59538	1.43195e-06
223872	59.1791	5.39795	59.4248	-5.21174	9.69648	-0.00289812	0.00265883	0.131702	0.00108671	1	11	0.0458422	0.000771432	8.93886e-06	-0.00149947	0.0167584	0.0015286	0.016828	5.21174	1.32323e-06
199544	59.5767	4.87639	59.7759	-4.67926	10.2935	-0.00287599	0.00303647	0.163563	0.0010885	1	11	0.053799	0.000900011	1.03468e-05	-0.00174001	0.0166734	0.00136473	0.0167291	4.67926	1.40789e-06
177832	59.8322	4.85451	60.0289	-4.63856	10.8885	-0.00287479	0.0029705	0.184359	0.00120569	1	11	0.062415	0.00103975	9.17583e-06	-0.00109857	0.0166041	0.00134718	0.0166587	4.63856	-1.17092e-06
158486	59.8226	4.68726	60.0059	-4.48012	11.4845	-0.00285807	0.00282703	0.214245	0.00130725	1	11	0.0715984	0.00119319	9.87547e-06	-0.00157965	0.0166141	0.00130176	0.016665	4.48012	6.99637e-07
141256	60.244	4.55756	60.4162	-4.32628	12.0805	-0.00285067	0.00300693	0.247219	0.00140682	1	11	0.0816829	0.001352	7.58964e-06	-0.00125893	0.0165047	0.00124861	0.0165519	4.32628	-2.28582e-06
125909	60.1957	4.45506	60.3604	-4.23272	12.6765	-0.00284851	0.00274676	0.283732	0.00154565	1	11	0.0922079	0.00152762	8.94703e-06	-0.00141929	0.016522	0.00122278	0.0165672	4.23272	1.35739e-06
112205	60.4444	4.01642	60.5777	-3.80161	13.2715	-0.00280471	0.00343346	0.353158	0.00155247	1	11	0.103929	0.00171563	8.18003e-06	-0.00149947	0.0164714	0.0010945	0.0165077	3.80161	-7.67003e-07
100004	60.5591	3.89721	60.6843	-3.68213	13.7315	-0.00284383	0.00298669	0.408367	0.00168424	1	11	0.116541	0.00192045	1.00448e-05	-0.00109857	0.0164447	0.00105828	0.0164787	3.68213	1.86476e-06
89129.3	60.6852	3.82377	60.8056	-3.60544	14.1915	-0.00284515	0.00275959	0.46699	0.00184674	1	11	0.130318	0.00214319	9.27534e-06	-0.00149947	0.0164133	0.0010342	0.0164459	3.60544	-7.69456e-07
79433.3	60.8024	3.78156	60.9199	-3.55888	14.7875	-0.00279687	0.00304393	0.529843	0.0020416	1	11	0.129493	0.00212562	1.15357e-05	-0.00174001	0.0163833	0.00101895	0.016415	3.55888	2.26036e-06
70795	60.9024	3.77304	61.0191	-3.54507	15.3835	-0.00277015	0.00287574	0.595836	0.00227812	1	11	0.129636	0.00212451	1.45299e-05	-0.00157965	0.0163569	0.00101335	0.0163883	3.54507	2.99417e-06
63093.8	61.0185	3.80571	61.1371	-3.5689	15.9795	-0.00274092	0.0029419	0.662822	0.00256838	1	11	0.129614	0.00212006	1.89768e-05	-0.00141929	0.016325	0.00101818	0.0163567	3.5689	4.44692e-06
56237	61.0827	3.87652	61.2056	-3.63132	16.5755	-0.00272172	0.00292239	0.730056	0.00292858	1	11	0.129542	0.0021165	1.48636e-05	-0.00133911	0.0163056	0.00103481	0.0163384	3.63132	-4.11321e-06
50122.5	61.2113	3.95057	61.3386	-3.69274	17.1705	-0.00268514	0.0027817	0.803763	0.0033341	1	11	0.129527	0.00211168	1.68803e-05	-0.00117875	0.0162691	0.00105	0.0163029	3.69274	2.01668e-06
44666.7	61.2861	4.10385	61.4233	-3.83093	17.7665	-0.00267593	0.00276442	0.86825	0.00387579	1	11	0.129406	0.00210679	1.43184e-05	-0.00149947	0.0162441	0.00108774	0.0162805	3.83093	-2.56189e-06
39814.1	61.3045	4.3171	61.4563	-4.02815	18.3635	-0.00267459	0.00270662	0.925959	0.00456922	1	11	0.129405	0.00210565	1.42457e-05	-0.00109857	0.0162315	0.00114303	0.0162717	4.02815	-7.26908e-08
35481	61.4204	4.55681	61.5892	-4.24303	18.9595	-0.00263369	0.00310192	0.984382	0.0053886	1	11	0.129256	0.00209868	1.11125e-05	-0.00133911	0.0161921	0.0012013	0.0162366	4.24303	-3.13316e-06
31621.1	61.5102	4.84558	61.7008	-4.50428	19.4185	-0.00264332	0.00347807	1.03872	0.0064063	1	11	0.140193	0.00227214	1.12494e-05	-0.00165983	0.0161572	0.00127281	0.0162072	4.50428	1.36922e-07
28188.1	61.5662	5.15306	61.7814	-4.78448	20.0145	-0.00263154	0.00295361	1.09569	0.00762261	1	11	0.13035	0.00210985	9.47401e-06	-0.00182019	0.0161297	0.00135005	0.0161861	4.78448	-1.77543e-06
25116.9	61.6725	5.55316	61.922	-5.1452	20.4745	-0.00261818	0.00282873	1.14107	0.00917708	1	11	0.139795	0.0022576	9.37146e-06	-0.00133911	0.0160843	0.00144827	0.0161493	5.1452	-1.0255e-07
22389	61.6856	5.95502	61.9724	-5.51415	21.0705	-0.00257806	0.00516147	1.19372	0.0110223	1	11	0.130114	0.00209955	1.19219e-05	-0.00125893	0.0160616	0.00155055	0.0161362	5.51415	2.55049e-06
19948.8	61.8194	6.50286	62.1605	-6.00493	21.5305	-0.00260354	0.00297833	1.22687	0.013427	1	11	0.137749	0.00221603	1.38157e-05	-0.00149947	0.0159991	0.00168297	0.0160874	6.00493	1.89373e-06
17786.9	61.9562	7.10881	62.3627	-6.54545	22.1265	-0.00259771	0.00339593	1.2587	0.0163556	1	11	0.129737	0.00208036	1.66042e-05	-0.00133911	0.0159307	0.00182788	0.0160352	6.54545	2.78853e-06
15847.7	61.9812	7.79491	62.4695	-7.16803	22.5865	-0.00258855	0.00270123	1.28838	0.02006	1	11	0.135484	0.00216881	1.85272e-05	-0.00117875	0.0158827	0.00199745	0.0160078	7.16803	1.92296e-06
14121.9	62.1093	8.44605	62.681	-7.74397	23.0465	-0.00258922	0.00313221	1.33436	0.0242276	1	11	0.140713	0.00224491	1.81591e-05	-0.00109857	0.0158083	0.00214972	0.0159538	7.74397	-3.68096e-07
12590.9	62.2257	9.35397	62.9248	-8.54889	23.6415	-0.00257565	0.00299821	1.35134	0.0298617	1	11	0.129711	0.00206137	1.79402e-05	-0.00133911	0.0157154	0.00236239	0.015892	8.54889	-2.1887e-07
11217.7	62.3009	10.3188	63.1497	-9.4044	24.1005	-0.00257356	0.00304876	1.37495	0.0367115	1	11	0.133179	0.00210895	1.61349e-05	-0.00157965	0.0156226	0.00258753	0.0158354	9.4044	-1.80534e-06
10002.2	62.5251	11.3788	63.552	-10.3143	24.5595	-0.00258266	0.00342287	1.39838	0.0448293	1	11	0.136183	0.00214286	1.48466e-05	-0.00174001	0.0154809	0.00281733	0.0157351	10.3143	-1.28825e-06
8914.93	62.6524	12.5591	63.8988	-11.3351	25.0419	-0.0025686	0.00308593	1.42149	0.0549132	1	11	0.138634	0.00216959	1.64297e-05	-0.00117875	0.0153445	0.00307592	0.0156498	11.3351	1.58313e-06
7944	62.8067	13.809	64.3068	-12.4	25.568	-0.00255171	0.00344332	1.45084	0.0669003	1	11	0.140595	0.00218631	1.56854e-05	-0.00165983	0.0151877	0.00333924	0.0155504	12.4	-7.44348e-07
7082.23	63.0745	15.4386	64.9364	-13.7537	26.3139	-0.00253056	0.00350427	1.4556	0.0822774	1	11	0.129529	0.0019947	2.08923e-05	-0.00190038	0.0149581	0.00366126	0.0153997	13.7537	5.20687e-06
6307.73	63.2042	16.9881	65.4474	-15.0445	26.9485	-0.00256393	0.00398896	1.48525	0.100071	1	11	0.130642	0.00199613	1.91835e-05	-0.00133911	0.0147557	0.00396607	0.0152794	15.0445	-1.70871e-06
5621.06	63.4681	18.7896	66.191	-16.4912	27.6493	-0.00251642	0.00343049	1.5069	0.121429	1	11	0.131536	0.00198722	1.94102e-05	-0.00141929	0.0144863	0.00428864	0.0151078	16.4912	2.2661e-07
5011.6	63.6861	20.8948	67.0262	-18.1641	28.4097	-0.00250841	0.00321138	1.51987	0.147704	1	11	0.132186	0.00197216	1.83476e-05	-0.00133911	0.0141761	0.00465102	0.0149195	18.1641	-1.06258e-06
4466.43	63.8721	23.2301	67.9653	-19.9862	29.1697	-0.00251141	0.00375386	1.53394	0.179199	1	11	0.132609	0.00195113	1.80455e-05	-0.00117875	0.0138273	0.00502894	0.0147134	19.9862	-3.02039e-07
3981.27	64.2003	25.7549	69.1736	-21.859	29.9297	-0.00251685	0.00371131	1.55216	0.215168	1	11	0.13293	0.00192169	1.79238e-05	-0.00101839	0.013417	0.00538244	0.0144564	21.859	-1.21706e-07
3546.6	64.4877	28.657	70.5683	-23.9594	30.6899	-0.00252591	0.00318108	1.56595	0.258238	1	11	0.1331	0.00188611	1.70997e-05	-0.00125893	0.0129496	0.00575455	0.0141707	23.9594	-8.24176e-07
3161.01	64.9177	31.8795	72.3229	-26.1545	31.4497	-0.00254182	0.0041631	1.57937	0.306869	1	11	0.133204	0.00184179	1.67251e-05	-0.00109857	0.0124111	0.00609479	0.0138269	26.1545	-3.7455e-07
2817.3	65.166	35.3581	74.1404	-28.4836	32.2099	-0.00248755	0.00267186	1.59772	0.363384	1	11	0.133091	0.00179512	1.67155e-05	-0.00149947	0.0118553	0.00643248	0.0134879	28.4836	-9.59304e-09
2510.8	65.6395	39.3122	76.5114	-30.9179	32.9697	-0.0025261	0.00418856	1.61243	0.425679	1	11	0.133013	0.00173848	1.9027e-05	-0.00149947	0.0112128	0.00671545	0.0130699	30.9179	2.31153e-06
2237.85	66.1029	43.8545	79.3272	-33.5614	33.7299	-0.00249726	0.00291421	1.62172	0.495631	1	11	0.132867	0.00167492	2.10195e-05	-0.00141929	0.0105045	0.00696898	0.012606	33.5614	1.99242e-06
1995.64	66.4254	48.6346	82.3265	-36.2104	34.4897	-0.00250928	0.00352824	1.63981	0.572274	1	11	0.132618	0.00161087	2.10835e-05	-0.00149947	0.00980065	0.00717572	0.0121468	36.2104	6.40362e-08
1778.29	66.9459	54.1849	86.1264	-38.9861	35.25	-0.0025198	0.00457958	1.65173	0.653767	1	11	0.132391	0.00153718	2.16479e-05	-0.00165983	0.00902509	0.00730476	0.0116108	38.9861	5.64394e-07
1585.51	67.5995	60.2394	90.5454	-41.7049	36.0097	-0.00251225	0.00440581	1.66637	0.737563	1	11	0.132114	0.00145909	2.37853e-05	-0.00133911	0.00824538	0.00734763	0.0110442	41.7049	2.13741e-06
1411.84	68.2987	67.0739	95.7268	-44.4816	36.7712	-0.0025234	0.00427738	1.68067	0.825129	1	11	0.131851	0.00137737	2.42406e-05	-0.000938206	0.00745325	0.00731959	0.0104464	44.4816	4.55323e-07
1258.79	69.0588	74.7206	101.746	-47.255	37.531	-0.00247977	0.00296233	1.6921	0.912579	1	11	0.131577	0.00129319	2.60034e-05	-0.000858025	0.00667088	0.00721779	0.00982838	47.255	1.76272e-06
1121.79	69.9498	83.2477	108.734	-49.961	38.2894	-0.00250887	0.00350407	1.70425	0.998954	1	11	0.13132	0.00120771	2.58102e-05	-0.00101839	0.00591634	0.00704107	0.00919673	49.961	-1.93153e-07
1000.32	70.8617	92.6339	116.629	-52.5853	39.0487	-0.00250453	0.00368285	1.71756	1.08352	1	11	0.131061	0.00112373	2.66675e-05	-0.00117875	0.00520949	0.00681011	0.00857417	52.5853	8.57288e-07
891.427	71.8391	103.174	125.721	-55.1508	39.8074	-0.00246654	0.00113061	1.73048	1.16544	1	11	0.130848	0.00104078	2.75538e-05	-0.00174001	0.00454515	0.00652764	0.00795415	55.1508	8.86266e-07
794.238	73.0206	115.057	136.273	-57.5989	40.5669	-0.00251145	0.00430915	1.74163	1.24156	1	11	0.130634	0.00095862	2.77833e-05	-0.00165983	0.00393214	0.0061958	0.00733823	57.5989	2.29591e-07
707.509	75.0435	128.649	148.937	-59.7442	41.3295	-0.00250789	0.00363192	1.74856	1.30464	1	11	0.130453	0.000875894	2.94439e-05	-0.00109857	0.00338306	0.00579967	0.00671426	59.7442	1.66052e-06
631.01	75.7255	142.977	161.792	-62.0928	42.0874	-0.0024665	0.00165749	1.76408	1.37763	1	11	0.130313	0.000805432	3.05881e-05	-0.00174001	0.00289285	0.00546198	0.00618076	62.0928	1.14427e-06
562.339	77.3548	159.815	177.552	-64.1717	42.8439	-0.00251745	0.00440709	1.77094	1.4348	1	11	0.130222	0.000733432	3.201e-05	-0.00117875	0.0024538	0.00506954	0.00563217	64.1717	1.42181e-06
501.444	79.5694	177.418	194.444	-65.8444	43.6012	-0.00250626	0.00327212	1.78896	1.48939	1	11	0.13005	0.000668832	3.26599e-05	-0.00109857	0.00210455	0.00469256	0.00514288	65.8444	6.49955e-07
446.859	81.7183	197.431	213.675	-67.515	44.3579	-0.0025168	0.00563739	1.80399	1.54013	1	11	0.129943	0.000608133	3.35962e-05	-0.00141929	0.00178983	0.00432423	0.00468	67.515	9.36323e-07
398.089	85.3255	221.26	237.142	-68.9116	45.1207	-0.00244922	0.000685498	1.80691	1.57299	1	11	0.12987	0.000547648	3.39814e-05	-0.00165983	0.00151726	0.00393446	0.00421688	68.9116	3.8518e-07
354.66	87.1493	246.709	261.65	-70.5444	45.8799	-0.00251971	0.0035914	1.81896	1.61716	1	11	0.129812	0.000496128	3.46227e-05	-0.00141929	0.00127299	0.00360367	0.00382191	70.5444	6.41303e-07
316.316	89.8502	273.114	287.514	-71.7896	46.8869	-0.00251484	0.00775948	1.84228	1.66236	1	12	0.131962	0.000458978	3.68385e-05	-0.000697663	0.00108693	0.0033039	0.0034781	71.7896	2.21577e-06
281.894	95.1813	306.058	320.517	-72.7248	47.6424	-0.0025437	0.008479	1.84472	1.68204	1	12	0.131477	0.000410202	3.85409e-05	-0.00165983	0.000926509	0.00297922	0.00311996	72.7248	1.70243e-06
251.044	99.3125	342.223	356.341	-73.8173	48.3979	-0.00237702	0.00251102	1.85251	1.70862	1	12	0.131121	0.000367964	3.97853e-05	-0.00165983	0.000782116	0.00269511	0.0028063	73.8173	1.24441e-06
223.925	110.876	376.34	392.333	-73.5842	49.1607	-0.00252213	0.00799071	1.88859	1.73775	1	12	0.130669	0.000333055	4.15687e-05	-0.00190038	0.000720321	0.00244495	0.00254885	73.5842	1.7834e-06
199.553	109.551	423.075	437.029	-75.4827	49.9212	-0.00251583	0.007792	1.88514	1.76669	1	12	0.130545	0.000298711	4.32888e-05	-0.00133911	0.000573583	0.00221512	0.00228818	75.4827	1.7201e-06
177.781	116.17	477.193	491.13	-76.3178	50.6893	-0.0024948	0.00695499	1.87603	1.77107	1	12	0.130394	0.000265498	4.46335e-05	-0.00133911	0.000481617	0.00197834	0.00203612	76.3178	1.34465e-06
158.428	125.844	527.371	542.178	-76.5788	51.4557	-0.00251065	0.00769351	1.90489	1.80227	1	12	0.130175	0.000240097	4.62302e-05	-0.00125893	0.000428102	0.00179404	0.00184441	76.5788	1.59668e-06
141.311	135.93	588.113	603.617	-76.9859	52.2079	-0.0025135	0.0076191	1.91506	1.81794	1	12	0.130048	0.000215449	4.76936e-05	-0.00141929	0.00037307	0.00161413	0.00165668	76.9859	1.46342e-06
125.846	147.626	656.289	672.688	-77.3229	52.9634	-0.00250296	0.00717083	1.92702	1.83421	1	12	0.129944	0.000193171	4.9444e-05	-0.00133911	0.000326238	0.00145033	0.00148657	77.3229	1.75044e-06
112.19	162.321	730.401	748.22	-77.4705	53.7088	-0.00251189	0.00754217	1.94225	1.85084	1	12	0.129855	0.000173551	5.10522e-05	-0.00125893	0.000289944	0.00130468	0.00133651	77.4705	1.60818e-06
100.032	175.146	814.087	832.714	-77.8582	54.4687	-0.00251053	0.00762555	1.95439	1.86793	1	12	0.129814	0.000155892	5.25374e-05	-0.00117875	0.000252585	0.00117403	0.00120089	77.8582	1.48516e-06
89.116	196.6	888.948	910.429	-77.5292	55.2357	-0.00253436	0.00836897	2.00904	1.91535	1	12	0.129715	0.000142477	5.40214e-05	-0.00117875	0.000237188	0.00107247	0.00109838	77.5292	1.48404e-06
79.4155	229.421	1008.78	1034.54	-77.1875	56.0003	-0.00249985	0.00685898	1.98663	1.88893	1	12	0.129677	0.000125347	5.55539e-05	-0.00109857	0.000214357	0.000942544	0.000966612	77.1875	1.53252e-06
70.8387	253.532	1115.76	1144.2	-77.1981	56.7514	-0.00248395	0.00649668	2.01363	1.91477	1	12	0.129658	0.000113318	5.71731e-05	-0.00133911	0.000193656	0.000852249	0.000873975	77.1981	1.61914e-06
63.0823	271.819	1262.18	1291.11	-77.8465	57.5318	-0.00255554	0.00870046	1.99891	1.91031	1	12	0.129664	0.000100428	5.86339e-05	-0.00165983	0.000163061	0.000757166	0.000774525	77.8465	1.46084e-06
56.2418	322.728	1387.97	1425	-76.9103	58.2753	-0.00243764	0.00470564	2.03883	1.93425	1	12	0.129636	9.0973e-05	6.02362e-05	-0.000938206	0.000158931	0.000683521	0.000701755	76.9103	1.60225e-06
50.1444	364.785	1553.44	1595.69	-76.785	59.0322	-0.00250796	0.00793929	2.04317	1.93639	1	12	0.129618	8.12299e-05	6.19984e-05	-0.00133911	0.000143265	0.000610093	0.000626688	76.785	1.7622e-06
44.6712	469.399	1671.44	1736.1	-74.3134	59.7962	-0.00251104	0.00778568	2.13158	1.97576	1	12	0.129526	7.46077e-05	6.33682e-05	-0.00254182	0.000155738	0.000554551	0.000576004	74.3134	1.36981e-06
39.8089	575.141	1828.46	1916.78	-72.539	60.5587	-0.0024388	0.00376313	2.18653	1.98967	1	12	0.129484	6.75528e-05	6.43505e-05	-0.00125893	0.000156542	0.000497669	0.000521709	72.539	9.82338e-07
35.4653	631.196	2177.04	2266.7	-73.8314	61.3081	-0.00246363	0.00535409	2.06134	1.9015	1	12	0.129582	5.71679e-05	6.57534e-05	-0.00141929	0.000122851	0.000423721	0.000441171	73.8314	1.40294e-06
31.6296	767.324	2341.42	2463.95	-71.8551	62.0325	-0.00253965	0.00829689	2.14906	1.94063	1	12	0.129524	5.25675e-05	6.72122e-05	-0.000777844	0.000126391	0.000385671	0.000405853	71.8551	1.45872e-06
28.1701	928.962	2494.89	2662.22	-69.5774	62.8368	-0.00259769	0.0104174	2.26455	1.98881	1	12	0.129485	4.86379e-05	6.92128e-05	-0.00101839	0.000131072	0.000352016	0.000375626	69.5774	2.0006e-06
25.1044	867.304	2677.57	2814.53	-72.0521	63.5929	-0.00243682	0.0043867	2.36771	2.14288	1	12	0.129559	4.60321e-05	7.03586e-05	-0.00109857	0.000109486	0.000338009	0.000355299	72.0521	1.14586e-06
22.3854	1163.86	3045.96	3260.74	-69.0881	64.5094	-0.00241029	0.000623127	2.33417	2.03679	1	13	0.129694	3.97743e-05	7.08066e-05	-0.000777844	0.000109463	0.000286478	0.000306679	69.0881	4.47947e-07
19.9553	1394.19	3324.93	3605.4	-67.2509	65.2712	-0.00257032	0.000450486	2.39872	2.04003	1	13	0.129622	3.59523e-05	7.09981e-05	-0.00133911	0.000107255	0.000255785	0.000277362	67.2509	1.91525e-07
17.7961	1591.71	3630.71	3964.29	-66.3272	66.1156	-0.00263737	0.000972205	2.46322	2.06612	1	13	0.129626	3.26983e-05	7.11547e-05	-0.00149947	0.000101283	0.000231026	0.000252252	66.3272	1.56598e-07
15.8576	1923.97	3899.14	4347.98	-63.7367	66.8379	-0.00252107	0.000740876	2.57404	2.07003	1	13	0.12959	2.98047e-05	7.1294e-05	-0.00157965	0.000101771	0.00020625	0.000229992	63.7367	1.39251e-07
14.119	2256.34	4201.07	4768.65	-61.7604	67.6403	-0.00249174	0.000648627	2.68322	2.0825	1	13	0.129617	2.7181e-05	7.13904e-05	-0.00109857	9.9223e-05	0.000184743	0.000209703	61.7604	9.64309e-08
12.6008	2611.08	4477.36	5183.1	-59.7503	68.5309	-0.00252112	0.000743479	2.82098	2.10506	1	13	0.129583	2.50011e-05	7.1649e-05	-0.0022211	9.71945e-05	0.000166664	0.000192935	59.7503	2.58585e-07
11.2249	3055.34	4743.11	5642	-57.2118	69.2149	-0.00264254	0.000600363	2.98935	2.11269	1	13	0.129514	2.29554e-05	7.16749e-05	-0.00174001	9.59828e-05	0.000149004	0.000177242	57.2118	2.58955e-08
10.0032	3502.61	4983.66	6091.4	-54.8997	69.9757	-0.00248415	0.000857158	3.19251	2.13695	1	13	0.129519	2.12625e-05	7.20123e-05	-0.00165983	9.43969e-05	0.000134312	0.000164166	54.8997	3.37463e-07
8.91838	3973.77	5144.86	6500.8	-52.3183	70.82	-0.00258754	0.000853886	3.46865	2.17257	1	13	0.129563	1.99303e-05	7.20244e-05	-0.00198056	9.40306e-05	0.000121742	0.000153827	52.3183	1.20425e-08
7.93953	4582.8	5399.56	7082.19	-49.6776	71.7587	-0.00251477	0.000744849	3.7125	2.15799	1	13	0.129537	1.82905e-05	7.23782e-05	-0.00125893	9.13685e-05	0.000107652	0.000141199	49.6776	3.53862e-07
7.07654	5142.8	5561.77	7575.07	-47.2414	72.317	-0.00253387	0.000912157	4.04377	2.17991	1	13	0.129592	1.71077e-05	7.25122e-05	-0.00117875	8.96244e-05	9.69258e-05	0.000132012	47.2414	1.33964e-07
6.31058	5775.35	5579.65	8030.39	-44.0126	72.9372	-0.00250757	0.000740378	4.52005	2.18215	1	13	0.129522	1.61289e-05	7.26344e-05	-0.00149947	8.95581e-05	8.65235e-05	0.000124527	44.0126	1.22181e-07
5.6205	6404.99	5599.21	8507.35	-41.1598	73.6237	-0.00258425	0.000684951	5.05729	2.1907	1	13	0.129593	1.5233e-05	7.26869e-05	-0.000617483	8.84972e-05	7.73638e-05	0.000117545	41.1598	5.25573e-08
5.01444	6920.03	5611.75	8909.46	-39.0401	74.3812	-0.00251991	0.000679848	5.65587	2.24384	1	13	0.129521	1.45374e-05	7.26955e-05	-0.00157965	8.71776e-05	7.06961e-05	0.00011224	39.0401	8.5292e-09
4.46939	7503.62	5437.76	9266.8	-35.9302	75.2225	-0.00251445	0.000816007	6.54865	2.25492	1	13	0.129511	1.39758e-05	7.29382e-05	-0.00157965	8.73799e-05	6.33228e-05	0.000107912	35.9302	2.42712e-07
3.97785	8096.02	5305.57	9679.6	-33.2381	76.1592	-0.00250755	0.000759923	7.54118	2.26563	1	13	0.129522	1.33809e-05	7.33421e-05	-0.00141929	8.64086e-05	5.66262e-05	0.00010331	33.2381	4.03887e-07
3.55114	8608.15	5090.72	10000.8	-30.5994	77.2004	-0.00250955	0.000756017	8.80387	2.2812	1	13	0.129518	1.29507e-05	7.34103e-05	-0.00125893	8.6068e-05	5.08992e-05	9.99922e-05	30.5994	6.82723e-08
3.1604	9112.47	4875.95	10335	-28.1506	78.3622	-0.00252045	0.000769631	10.3281	2.29889	1	13	0.129516	1.25318e-05	7.35156e-05	-0.00165983	8.53131e-05	4.56498e-05	9.67587e-05	28.1506	1.05233e-07
2.81836	9547.52	4632.99	10612.2	-25.8853	79.6567	-0.00251245	0.000796499	12.1888	2.32311	1	13	0.129516	1.22044e-05	7.413e-05	-0.00198056	8.47766e-05	4.11383e-05	9.42307e-05	25.8853	6.14418e-07
2.51367	9832.79	4299.96	10731.9	-23.6202	81.1007	-0.0024942	0.000700432	14.7247	2.36387	1	13	0.129488	1.20657e-05	7.4175e-05	-0.00125893	8.53738e-05	3.73347e-05	9.31802e-05	23.6202	4.50003e-08
2.23982	10266.7	4111.13	11059.2	-21.8228	82.7154	-0.00251114	0.000743674	17.284	2.38846	1	13	0.129513	1.17109e-05	7.4549e-05	-0.00190038	8.39424e-05	3.36134e-05	9.04222e-05	21.8228	3.7406e-07
1.99706	10602.7	3789.16	11259.4	-19.6657	84.5187	-0.00249023	0.000687067	21.0323	2.38199	1	13	0.12951	1.15023e-05	7.51922e-05	-0.00109857	8.36341e-05	2.98889e-05	8.88145e-05	19.6657	6.43165e-07
1.77961	10921.7	3594.79	11498.1	-18.2186	86.5369	-0.00250132	0.00108606	24.8783	2.43175	1	13	0.129491	1.1262e-05	7.5136e-05	-0.00157965	8.26114e-05	2.7191e-05	8.69713e-05	18.2186	-5.62156e-08
1.58469	11222.9	3346.85	11711.3	-16.6055	88.796	-0.00247881	0.000665106	30.0082	2.45078	1	13	0.129542	1.10613e-05	7.61308e-05	-0.00125893	8.18266e-05	2.44021e-05	8.53877e-05	16.6055	9.94809e-07
1.41224	11301.1	3034.39	11701.4	-15.0296	91.3252	-0.00249102	0.00100846	37.14	2.49751	1	13	0.129514	1.10683e-05	7.62664e-05	-0.00125893	8.25365e-05	2.21613e-05	8.54599e-05	15.0296	1.35592e-07
1.25967	11488	2775.83	11818.6	-13.5839	94.154	-0.00249703	0.000987926	45.5166	2.51087	1	13	0.129508	1.0958e-05	7.74333e-05	-0.000938206	8.22456e-05	1.98729e-05	8.46125e-05	13.5839	1.16696e-06
1.12249	11625.4	2460.71	11882.9	-11.9512	97.3222	-0.00250488	0.000920886	57.6208	2.47088	1	13	0.129511	1.08989e-05	7.81209e-05	-0.00117875	8.23302e-05	1.74266e-05	8.41543e-05	11.9512	6.8754e-07
1.00006	11749.5	2249.82	11963	-10.8399	100.871	-0.00250024	0.000885633	70.7367	2.50185	1	13	0.129527	1.08273e-05	7.88653e-05	-0.00141929	8.20996e-05	1.57206e-05	8.35912e-05	10.8399	7.44448e-07